[{"success":true,"timeout":false,"failed_images":[],"failed_audio":[],"failed_video":[],"trial_type":"preload","trial_index":0,"time_elapsed":17,"internal_node_id":"0.0-0.0","chinrest_used":false,"chinrest_passed":false,"chinrest_failure_reason":null,"chinrest_metrics":null,"webgazer_enabled":false,"calib_passed":false,"calib_attempts":0,"camera_gate_failed":false,"camera_gate_timeout":false,"camera_gate_policy":null,"regression_module":null,"drift_checks":{"total":0,"failures":0,"recalibrations":0,"skipped":true},"calibration_report":{"attempts_total":0,"attempts":[],"final":{"calib_passed":false,"calib_strong_pass":false,"calib_terminal_fail":false,"avg_offset_px":null,"mean_in_roi":null},"drift_checks_total":0,"drift_failures_total":0,"drift_recalibrations_total":0,"drift_checks_skipped":true,"camera_gate_failed":false,"camera_gate_timeout":false,"camera_gate_policy":null,"camera_gate_failure_reason":null,"regression_module":null,"chinrest_used":false,"chinrest_passed":false,"chinrest_failure_reason":null,"chinrest_metrics":null,"device_metrics":{"screen_w":1280,"screen_h":900,"window_w":1280,"window_h":900,"devicePixelRatio":1}}},{"rt":2142,"stimulus":"\n<p> Welcome to the experiment!</p>\n<p> Press any key to begin. </p>","response":" ","trial_type":"html-keyboard-response","trial_index":1,"time_elapsed":2159,"internal_node_id":"0.0-1.0","chinrest_used":false,"chinrest_passed":false,"chinrest_failure_reason":null,"chinrest_metrics":null,"webgazer_enabled":false,"calib_passed":false,"calib_attempts":0,"camera_gate_failed":false,"camera_gate_timeout":false,"camera_gate_policy":null,"regression_module":null,"drift_checks":{"total":0,"failures":0,"recalibrations":0,"skipped":true},"calibration_report":{"attempts_total":0,"attempts":[],"final":{"calib_passed":false,"calib_strong_pass":false,"calib_terminal_fail":false,"avg_offset_px":null,"mean_in_roi":null},"drift_checks_total":0,"drift_failures_total":0,"drift_recalibrations_total":0,"drift_checks_skipped":true,"camera_gate_failed":false,"camera_gate_timeout":false,"camera_gate_policy":null,"camera_gate_failure_reason":null,"regression_module":null,"chinrest_used":false,"chinrest_passed":false,"chinrest_failure_reason":null,"chinrest_metrics":null,"device_metrics":{"screen_w":1280,"screen_h":900,"window_w":1280,"window_h":900,"devicePixelRatio":1}}},{"rt":362,"stimulus":"<h2 style=\"color:black;\">In the first part of the experiment, you are asked to imagine that you are an allergist (someone who tries to discover the cause of allergic reactions in people).</h2><h3 style=\"color:black;\">You have been presented with a new patient who suffers from allergic reactions following some meals, but not others.</h3> <h3 style=\"color:black;\">You arrange for them to eat a number of different meals, containing one or two foods, and observe whether or not they have an allergic reaction.</h3><p style=\"color:black;\">Press the spacebar to continue.</p>","response":" ","trial_type":"html-keyboard-response","trial_index":2,"time_elapsed":2522,"internal_node_id":"0.0-2.0-0.0","chinrest_used":false,"chinrest_passed":false,"chinrest_failure_reason":null,"chinrest_metrics":null,"webgazer_enabled":false,"calib_passed":false,"calib_attempts":0,"camera_gate_failed":false,"camera_gate_timeout":false,"camera_gate_policy":null,"regression_module":null,"drift_checks":{"total":0,"failures":0,"recalibrations":0,"skipped":true},"calibration_report":{"attempts_total":0,"attempts":[],"final":{"calib_passed":false,"calib_strong_pass":false,"calib_terminal_fail":false,"avg_offset_px":null,"mean_in_roi":null},"drift_checks_total":0,"drift_failures_total":0,"drift_recalibrations_total":0,"drift_checks_skipped":true,"camera_gate_failed":false,"camera_gate_timeout":false,"camera_gate_policy":null,"camera_gate_failure_reason":null,"regression_module":null,"chinrest_used":false,"chinrest_passed":false,"chinrest_failure_reason":null,"chinrest_metrics":null,"device_metrics":{"screen_w":1280,"screen_h":900,"window_w":1280,"window_h":900,"devicePixelRatio":1}}},{"rt":363,"stimulus":"<h2 style=\"color:black;\">During the first part of the experiment, you will be shown pictures of the foods given to your patient for each meal.</h2><h3 style=\"color:black;\">You will then be shown whether or not they suffered an allergic reaction after eating the meal.</h3><h3 style=\"color:black;\">When you see each meal, you will have three seconds to predict whether or not you believe they will suffer an allergic reaction after eating the meal.</h3><p style=\"color:black;\">Press the spacebar to continue.</p>","response":" ","trial_type":"html-keyboard-response","trial_index":3,"time_elapsed":2885,"internal_node_id":"0.0-2.0-1.0","chinrest_used":false,"chinrest_passed":false,"chinrest_failure_reason":null,"chinrest_metrics":null,"webgazer_enabled":false,"calib_passed":false,"calib_attempts":0,"camera_gate_failed":false,"camera_gate_timeout":false,"camera_gate_policy":null,"regression_module":null,"drift_checks":{"total":0,"failures":0,"recalibrations":0,"skipped":true},"calibration_report":{"attempts_total":0,"attempts":[],"final":{"calib_passed":false,"calib_strong_pass":false,"calib_terminal_fail":false,"avg_offset_px":null,"mean_in_roi":null},"drift_checks_total":0,"drift_failures_total":0,"drift_recalibrations_total":0,"drift_checks_skipped":true,"camera_gate_failed":false,"camera_gate_timeout":false,"camera_gate_policy":null,"camera_gate_failure_reason":null,"regression_module":null,"chinrest_used":false,"chinrest_passed":false,"chinrest_failure_reason":null,"chinrest_metrics":null,"device_metrics":{"screen_w":1280,"screen_h":900,"window_w":1280,"window_h":900,"devicePixelRatio":1}}},{"rt":369,"stimulus":"<h2 style=\"color:black;\">To predict that a particular meal <strong><u>will not</strong></u> cause an allergy please press the <q><strong>0</strong></q> key on the keyboard.</h2><h2 style=\"color:black;\">To predict that a meal <b><u>will cause</b></u> an allergic reaction please press the <q><strong>1</strong></q> key on the keyboard.</h2><p style=\"color:black;\">Press either of the response keys to continue.</p>","response":"1","trial_type":"html-keyboard-response","trial_index":4,"time_elapsed":3255,"internal_node_id":"0.0-2.0-2.0","chinrest_used":false,"chinrest_passed":false,"chinrest_failure_reason":null,"chinrest_metrics":null,"webgazer_enabled":false,"calib_passed":false,"calib_attempts":0,"camera_gate_failed":false,"camera_gate_timeout":false,"camera_gate_policy":null,"regression_module":null,"drift_checks":{"total":0,"failures":0,"recalibrations":0,"skipped":true},"calibration_report":{"attempts_total":0,"attempts":[],"final":{"calib_passed":false,"calib_strong_pass":false,"calib_terminal_fail":false,"avg_offset_px":null,"mean_in_roi":null},"drift_checks_total":0,"drift_failures_total":0,"drift_recalibrations_total":0,"drift_checks_skipped":true,"camera_gate_failed":false,"camera_gate_timeout":false,"camera_gate_policy":null,"camera_gate_failure_reason":null,"regression_module":null,"chinrest_used":false,"chinrest_passed":false,"chinrest_failure_reason":null,"chinrest_metrics":null,"device_metrics":{"screen_w":1280,"screen_h":900,"window_w":1280,"window_h":900,"devicePixelRatio":1}}},{"rt":363,"stimulus":"<h2 style=\"color:black;\">Obviously you will have to guess at first.</h2><h3 style=\"color:black;\">But hopefully, as you see more meals, you will learn which foods tend to make your patient have an allergic reaction.</h3><br><h2 style=\"color:black;\">Please hold the key down longer if you are more confident you are making the right choice.</h2><h3 style=\"color:black;\">If you think you are guessing please hold the key briefly.</h3><h3 style=\"color:black;\">If you are very confident you should press and hold until the meal disappears from the screen.</h3><p style=\"color:black;\">Press the spacebar to continue.</p>","response":" ","trial_type":"html-keyboard-response","trial_index":5,"time_elapsed":3618,"internal_node_id":"0.0-2.0-3.0","chinrest_used":false,"chinrest_passed":false,"chinrest_failure_reason":null,"chinrest_metrics":null,"webgazer_enabled":false,"calib_passed":false,"calib_attempts":0,"camera_gate_failed":false,"camera_gate_timeout":false,"camera_gate_policy":null,"regression_module":null,"drift_checks":{"total":0,"failures":0,"recalibrations":0,"skipped":true},"calibration_report":{"attempts_total":0,"attempts":[],"final":{"calib_passed":false,"calib_strong_pass":false,"calib_terminal_fail":false,"avg_offset_px":null,"mean_in_roi":null},"drift_checks_total":0,"drift_failures_total":0,"drift_recalibrations_total":0,"drift_checks_skipped":true,"camera_gate_failed":false,"camera_gate_timeout":false,"camera_gate_policy":null,"camera_gate_failure_reason":null,"regression_module":null,"chinrest_used":false,"chinrest_passed":false,"chinrest_failure_reason":null,"chinrest_metrics":null,"device_metrics":{"screen_w":1280,"screen_h":900,"window_w":1280,"window_h":900,"devicePixelRatio":1}}},{"rt":357,"stimulus":"<h2 style=\"color:black;\">Try to make your prediction <b><u>before</b></u> the meal leaves the screen.</h2><br><h2 style=\"color:black;\">Food <strong><u>does not</strong></u> cause an allergy &#8594 <q><strong>0</strong></q> key </h2><h2 style=\"color:black;\">Food <strong><u>causes</strong></u> an allergy &#8594 <q><strong>1</strong></q> key</h2><p style=\"color:black;\">Press the spacebar to begin the practice trials.</p>","response":" ","trial_type":"html-keyboard-response","trial_index":6,"time_elapsed":3976,"internal_node_id":"0.0-2.0-4.0","chinrest_used":false,"chinrest_passed":false,"chinrest_failure_reason":null,"chinrest_metrics":null,"webgazer_enabled":false,"calib_passed":false,"calib_attempts":0,"camera_gate_failed":false,"camera_gate_timeout":false,"camera_gate_policy":null,"regression_module":null,"drift_checks":{"total":0,"failures":0,"recalibrations":0,"skipped":true},"calibration_report":{"attempts_total":0,"attempts":[],"final":{"calib_passed":false,"calib_strong_pass":false,"calib_terminal_fail":false,"avg_offset_px":null,"mean_in_roi":null},"drift_checks_total":0,"drift_failures_total":0,"drift_recalibrations_total":0,"drift_checks_skipped":true,"camera_gate_failed":false,"camera_gate_timeout":false,"camera_gate_policy":null,"camera_gate_failure_reason":null,"regression_module":null,"chinrest_used":false,"chinrest_passed":false,"chinrest_failure_reason":null,"chinrest_metrics":null,"device_metrics":{"screen_w":1280,"screen_h":900,"window_w":1280,"window_h":900,"devicePixelRatio":1}}},{"rt":null,"stimulus":"<div style=\"color:black; font-size:60px;\">+</div>","response":null,"trial_type":"html-keyboard-response","trial_index":7,"time_elapsed":4977,"internal_node_id":"0.0-2.0-5.0-0.0","chinrest_used":false,"chinrest_passed":false,"chinrest_failure_reason":null,"chinrest_metrics":null,"webgazer_enabled":false,"calib_passed":false,"calib_attempts":0,"camera_gate_failed":false,"camera_gate_timeout":false,"camera_gate_policy":null,"regression_module":null,"drift_checks":{"total":0,"failures":0,"recalibrations":0,"skipped":true},"calibration_report":{"attempts_total":0,"attempts":[],"final":{"calib_passed":false,"calib_strong_pass":false,"calib_terminal_fail":false,"avg_offset_px":null,"mean_in_roi":null},"drift_checks_total":0,"drift_failures_total":0,"drift_recalibrations_total":0,"drift_checks_skipped":true,"camera_gate_failed":false,"camera_gate_timeout":false,"camera_gate_policy":null,"camera_gate_failure_reason":null,"regression_module":null,"chinrest_used":false,"chinrest_passed":false,"chinrest_failure_reason":null,"chinrest_metrics":null,"device_metrics":{"screen_w":1280,"screen_h":900,"window_w":1280,"window_h":900,"devicePixelRatio":1}}},{"rt":null,"stimulus":"<img class='stimuli-allergy' src='stim/kamin/set1/s16.jpg'>","response":48,"test_part":"practice","correct_response":48,"incorrect_response":49,"stim_left":"in/set1/s16.jpg","stim_right":"","version":"kamin","trial_type":"html-keyboard-response","trial_index":8,"time_elapsed":7986,"internal_node_id":"0.0-2.0-5.0-1.0","PROLIFIC_PID":"test123","interview_date":"03/06/2026","handedness":"right","task_version":"kamin","accuracy":1,"confidence":3.7,"index":1,"chinrest_used":false,"chinrest_passed":false,"chinrest_failure_reason":null,"chinrest_metrics":null,"webgazer_enabled":false,"calib_passed":false,"calib_attempts":0,"camera_gate_failed":false,"camera_gate_timeout":false,"camera_gate_policy":null,"regression_module":null,"drift_checks":{"total":0,"failures":0,"recalibrations":0,"skipped":true},"calibration_report":{"attempts_total":0,"attempts":[],"final":{"calib_passed":false,"calib_strong_pass":false,"calib_terminal_fail":false,"avg_offset_px":null,"mean_in_roi":null},"drift_checks_total":0,"drift_failures_total":0,"drift_recalibrations_total":0,"drift_checks_skipped":true,"camera_gate_failed":false,"camera_gate_timeout":false,"camera_gate_policy":null,"camera_gate_failure_reason":null,"regression_module":null,"chinrest_used":false,"chinrest_passed":false,"chinrest_failure_reason":null,"chinrest_metrics":null,"device_metrics":{"screen_w":1280,"screen_h":900,"window_w":1280,"window_h":900,"devicePixelRatio":1}}},{"rt":null,"stimulus":"<div class='feedback-container'><img src='stim/kamin/-.jpg'></div>","response":null,"trial_type":"html-keyboard-response","trial_index":9,"time_elapsed":8990,"internal_node_id":"0.0-2.0-5.0-2.0","chinrest_used":false,"chinrest_passed":false,"chinrest_failure_reason":null,"chinrest_metrics":null,"webgazer_enabled":false,"calib_passed":false,"calib_attempts":0,"camera_gate_failed":false,"camera_gate_timeout":false,"camera_gate_policy":null,"regression_module":null,"drift_checks":{"total":0,"failures":0,"recalibrations":0,"skipped":true},"calibration_report":{"attempts_total":0,"attempts":[],"final":{"calib_passed":false,"calib_strong_pass":false,"calib_terminal_fail":false,"avg_offset_px":null,"mean_in_roi":null},"drift_checks_total":0,"drift_failures_total":0,"drift_recalibrations_total":0,"drift_checks_skipped":true,"camera_gate_failed":false,"camera_gate_timeout":false,"camera_gate_policy":null,"camera_gate_failure_reason":null,"regression_module":null,"chinrest_used":false,"chinrest_passed":false,"chinrest_failure_reason":null,"chinrest_metrics":null,"device_metrics":{"screen_w":1280,"screen_h":900,"window_w":1280,"window_h":900,"devicePixelRatio":1}}},{"rt":null,"stimulus":"<div style=\"color:black; font-size:60px;\">+</div>","response":null,"trial_type":"html-keyboard-response","trial_index":10,"time_elapsed":9993,"internal_node_id":"0.0-2.0-5.0-0.1","chinrest_used":false,"chinrest_passed":false,"chinrest_failure_reason":null,"chinrest_metrics":null,"webgazer_enabled":false,"calib_passed":false,"calib_attempts":0,"camera_gate_failed":false,"camera_gate_timeout":false,"camera_gate_policy":null,"regression_module":null,"drift_checks":{"total":0,"failures":0,"recalibrations":0,"skipped":true},"calibration_report":{"attempts_total":0,"attempts":[],"final":{"calib_passed":false,"calib_strong_pass":false,"calib_terminal_fail":false,"avg_offset_px":null,"mean_in_roi":null},"drift_checks_total":0,"drift_failures_total":0,"drift_recalibrations_total":0,"drift_checks_skipped":true,"camera_gate_failed":false,"camera_gate_timeout":false,"camera_gate_policy":null,"camera_gate_failure_reason":null,"regression_module":null,"chinrest_used":false,"chinrest_passed":false,"chinrest_failure_reason":null,"chinrest_metrics":null,"device_metrics":{"screen_w":1280,"screen_h":900,"window_w":1280,"window_h":900,"devicePixelRatio":1}}},{"rt":null,"stimulus":"<img class='stimuli-allergy' src='stim/kamin/set1/s12.jpg'>","response":48,"test_part":"practice","correct_response":48,"incorrect_response":49,"stim_left":"in/set1/s12.jpg","stim_right":"","version":"kamin","trial_type":"html-keyboard-response","trial_index":11,"time_elapsed":12995,"internal_node_id":"0.0-2.0-5.0-1.1","PROLIFIC_PID":"test123","interview_date":"03/06/2026","handedness":"right","task_version":"kamin","accuracy":1,"confidence":3.7,"index":2,"chinrest_used":false,"chinrest_passed":false,"chinrest_failure_reason":null,"chinrest_metrics":null,"webgazer_enabled":false,"calib_passed":false,"calib_attempts":0,"camera_gate_failed":false,"camera_gate_timeout":false,"camera_gate_policy":null,"regression_module":null,"drift_checks":{"total":0,"failures":0,"recalibrations":0,"skipped":true},"calibration_report":{"attempts_total":0,"attempts":[],"final":{"calib_passed":false,"calib_strong_pass":false,"calib_terminal_fail":false,"avg_offset_px":null,"mean_in_roi":null},"drift_checks_total":0,"drift_failures_total":0,"drift_recalibrations_total":0,"drift_checks_skipped":true,"camera_gate_failed":false,"camera_gate_timeout":false,"camera_gate_policy":null,"camera_gate_failure_reason":null,"regression_module":null,"chinrest_used":false,"chinrest_passed":false,"chinrest_failure_reason":null,"chinrest_metrics":null,"device_metrics":{"screen_w":1280,"screen_h":900,"window_w":1280,"window_h":900,"devicePixelRatio":1}}},{"rt":null,"stimulus":"<div class='feedback-container'><img src='stim/kamin/-.jpg'></div>","response":null,"trial_type":"html-keyboard-response","trial_index":12,"time_elapsed":14005,"internal_node_id":"0.0-2.0-5.0-2.1","chinrest_used":false,"chinrest_passed":false,"chinrest_failure_reason":null,"chinrest_metrics":null,"webgazer_enabled":false,"calib_passed":false,"calib_attempts":0,"camera_gate_failed":false,"camera_gate_timeout":false,"camera_gate_policy":null,"regression_module":null,"drift_checks":{"total":0,"failures":0,"recalibrations":0,"skipped":true},"calibration_report":{"attempts_total":0,"attempts":[],"final":{"calib_passed":false,"calib_strong_pass":false,"calib_terminal_fail":false,"avg_offset_px":null,"mean_in_roi":null},"drift_checks_total":0,"drift_failures_total":0,"drift_recalibrations_total":0,"drift_checks_skipped":true,"camera_gate_failed":false,"camera_gate_timeout":false,"camera_gate_policy":null,"camera_gate_failure_reason":null,"regression_module":null,"chinrest_used":false,"chinrest_passed":false,"chinrest_failure_reason":null,"chinrest_metrics":null,"device_metrics":{"screen_w":1280,"screen_h":900,"window_w":1280,"window_h":900,"devicePixelRatio":1}}},{"rt":null,"stimulus":"<div style=\"color:black; font-size:60px;\">+</div>","response":null,"trial_type":"html-keyboard-response","trial_index":13,"time_elapsed":15010,"internal_node_id":"0.0-2.0-5.0-0.2","chinrest_used":false,"chinrest_passed":false,"chinrest_failure_reason":null,"chinrest_metrics":null,"webgazer_enabled":false,"calib_passed":false,"calib_attempts":0,"camera_gate_failed":false,"camera_gate_timeout":false,"camera_gate_policy":null,"regression_module":null,"drift_checks":{"total":0,"failures":0,"recalibrations":0,"skipped":true},"calibration_report":{"attempts_total":0,"attempts":[],"final":{"calib_passed":false,"calib_strong_pass":false,"calib_terminal_fail":false,"avg_offset_px":null,"mean_in_roi":null},"drift_checks_total":0,"drift_failures_total":0,"drift_recalibrations_total":0,"drift_checks_skipped":true,"camera_gate_failed":false,"camera_gate_timeout":false,"camera_gate_policy":null,"camera_gate_failure_reason":null,"regression_module":null,"chinrest_used":false,"chinrest_passed":false,"chinrest_failure_reason":null,"chinrest_metrics":null,"device_metrics":{"screen_w":1280,"screen_h":900,"window_w":1280,"window_h":900,"devicePixelRatio":1}}},{"rt":null,"stimulus":"<img class='stimuli-allergy' src='stim/kamin/set1/s17.jpg'>","response":48,"test_part":"practice","correct_response":49,"incorrect_response":48,"stim_left":"in/set1/s17.jpg","stim_right":"","version":"kamin","trial_type":"html-keyboard-response","trial_index":14,"time_elapsed":18024,"internal_node_id":"0.0-2.0-5.0-1.2","PROLIFIC_PID":"test123","interview_date":"03/06/2026","handedness":"right","task_version":"kamin","accuracy":0,"confidence":3.7,"index":3,"chinrest_used":false,"chinrest_passed":false,"chinrest_failure_reason":null,"chinrest_metrics":null,"webgazer_enabled":false,"calib_passed":false,"calib_attempts":0,"camera_gate_failed":false,"camera_gate_timeout":false,"camera_gate_policy":null,"regression_module":null,"drift_checks":{"total":0,"failures":0,"recalibrations":0,"skipped":true},"calibration_report":{"attempts_total":0,"attempts":[],"final":{"calib_passed":false,"calib_strong_pass":false,"calib_terminal_fail":false,"avg_offset_px":null,"mean_in_roi":null},"drift_checks_total":0,"drift_failures_total":0,"drift_recalibrations_total":0,"drift_checks_skipped":true,"camera_gate_failed":false,"camera_gate_timeout":false,"camera_gate_policy":null,"camera_gate_failure_reason":null,"regression_module":null,"chinrest_used":false,"chinrest_passed":false,"chinrest_failure_reason":null,"chinrest_metrics":null,"device_metrics":{"screen_w":1280,"screen_h":900,"window_w":1280,"window_h":900,"devicePixelRatio":1}}},{"rt":null,"stimulus":"<div class='feedback-container'><img src='stim/kamin/+.jpg'></div>","response":null,"trial_type":"html-keyboard-response","trial_index":15,"time_elapsed":19027,"internal_node_id":"0.0-2.0-5.0-2.2","chinrest_used":false,"chinrest_passed":false,"chinrest_failure_reason":null,"chinrest_metrics":null,"webgazer_enabled":false,"calib_passed":false,"calib_attempts":0,"camera_gate_failed":false,"camera_gate_timeout":false,"camera_gate_policy":null,"regression_module":null,"drift_checks":{"total":0,"failures":0,"recalibrations":0,"skipped":true},"calibration_report":{"attempts_total":0,"attempts":[],"final":{"calib_passed":false,"calib_strong_pass":false,"calib_terminal_fail":false,"avg_offset_px":null,"mean_in_roi":null},"drift_checks_total":0,"drift_failures_total":0,"drift_recalibrations_total":0,"drift_checks_skipped":true,"camera_gate_failed":false,"camera_gate_timeout":false,"camera_gate_policy":null,"camera_gate_failure_reason":null,"regression_module":null,"chinrest_used":false,"chinrest_passed":false,"chinrest_failure_reason":null,"chinrest_metrics":null,"device_metrics":{"screen_w":1280,"screen_h":900,"window_w":1280,"window_h":900,"devicePixelRatio":1}}},{"rt":207,"stimulus":"<h2 style=\"color:black;\">Let us begin!</h2><p style=\"color:black;\">Press the spacebar when you are ready to start the experiment.</p>","response":" ","trial_type":"html-keyboard-response","trial_index":16,"time_elapsed":19467,"internal_node_id":"0.0-2.0-6.0","chinrest_used":false,"chinrest_passed":false,"chinrest_failure_reason":null,"chinrest_metrics":null,"webgazer_enabled":false,"calib_passed":false,"calib_attempts":0,"camera_gate_failed":false,"camera_gate_timeout":false,"camera_gate_policy":null,"regression_module":null,"drift_checks":{"total":0,"failures":0,"recalibrations":0,"skipped":true},"calibration_report":{"attempts_total":0,"attempts":[],"final":{"calib_passed":false,"calib_strong_pass":false,"calib_terminal_fail":false,"avg_offset_px":null,"mean_in_roi":null},"drift_checks_total":0,"drift_failures_total":0,"drift_recalibrations_total":0,"drift_checks_skipped":true,"camera_gate_failed":false,"camera_gate_timeout":false,"camera_gate_policy":null,"camera_gate_failure_reason":null,"regression_module":null,"chinrest_used":false,"chinrest_passed":false,"chinrest_failure_reason":null,"chinrest_metrics":null,"device_metrics":{"screen_w":1280,"screen_h":900,"window_w":1280,"window_h":900,"devicePixelRatio":1}}},{"rt":null,"stimulus":"<div style=\"color:black; font-size:60px;\">+</div>","response":null,"trial_type":"html-keyboard-response","trial_index":17,"time_elapsed":20468,"internal_node_id":"0.0-2.0-7.0-0.0","chinrest_used":false,"chinrest_passed":false,"chinrest_failure_reason":null,"chinrest_metrics":null,"webgazer_enabled":false,"calib_passed":false,"calib_attempts":0,"camera_gate_failed":false,"camera_gate_timeout":false,"camera_gate_policy":null,"regression_module":null,"drift_checks":{"total":0,"failures":0,"recalibrations":0,"skipped":true},"calibration_report":{"attempts_total":0,"attempts":[],"final":{"calib_passed":false,"calib_strong_pass":false,"calib_terminal_fail":false,"avg_offset_px":null,"mean_in_roi":null},"drift_checks_total":0,"drift_failures_total":0,"drift_recalibrations_total":0,"drift_checks_skipped":true,"camera_gate_failed":false,"camera_gate_timeout":false,"camera_gate_policy":null,"camera_gate_failure_reason":null,"regression_module":null,"chinrest_used":false,"chinrest_passed":false,"chinrest_failure_reason":null,"chinrest_metrics":null,"device_metrics":{"screen_w":1280,"screen_h":900,"window_w":1280,"window_h":900,"devicePixelRatio":1}}},{"rt":null,"stimulus":"<img class='stimuli-allergy' src='stim/kamin/set1/s6.jpg'>","response":48,"test_part":"learning","reaction":"no-reaction","condition":"single-negative","trial_identity":"F-","correct_response":48,"incorrect_response":49,"stim_left":"in/set1/s6.jpg","stim_right":"","version":"kamin","trial_type":"html-keyboard-response","trial_index":18,"time_elapsed":23476,"internal_node_id":"0.0-2.0-7.0-1.0","PROLIFIC_PID":"test123","interview_date":"03/06/2026","handedness":"right","task_version":"kamin","accuracy":1,"confidence":3.7,"index":4,"chinrest_used":false,"chinrest_passed":false,"chinrest_failure_reason":null,"chinrest_metrics":null,"webgazer_enabled":false,"calib_passed":false,"calib_attempts":0,"camera_gate_failed":false,"camera_gate_timeout":false,"camera_gate_policy":null,"regression_module":null,"drift_checks":{"total":0,"failures":0,"recalibrations":0,"skipped":true},"calibration_report":{"attempts_total":0,"attempts":[],"final":{"calib_passed":false,"calib_strong_pass":false,"calib_terminal_fail":false,"avg_offset_px":null,"mean_in_roi":null},"drift_checks_total":0,"drift_failures_total":0,"drift_recalibrations_total":0,"drift_checks_skipped":true,"camera_gate_failed":false,"camera_gate_timeout":false,"camera_gate_policy":null,"camera_gate_failure_reason":null,"regression_module":null,"chinrest_used":false,"chinrest_passed":false,"chinrest_failure_reason":null,"chinrest_metrics":null,"device_metrics":{"screen_w":1280,"screen_h":900,"window_w":1280,"window_h":900,"devicePixelRatio":1}}},{"rt":null,"stimulus":"<div class='feedback-container'><img src='stim/kamin/-.jpg'></div>","response":null,"trial_type":"html-keyboard-response","trial_index":19,"time_elapsed":24477,"internal_node_id":"0.0-2.0-7.0-2.0","chinrest_used":false,"chinrest_passed":false,"chinrest_failure_reason":null,"chinrest_metrics":null,"webgazer_enabled":false,"calib_passed":false,"calib_attempts":0,"camera_gate_failed":false,"camera_gate_timeout":false,"camera_gate_policy":null,"regression_module":null,"drift_checks":{"total":0,"failures":0,"recalibrations":0,"skipped":true},"calibration_report":{"attempts_total":0,"attempts":[],"final":{"calib_passed":false,"calib_strong_pass":false,"calib_terminal_fail":false,"avg_offset_px":null,"mean_in_roi":null},"drift_checks_total":0,"drift_failures_total":0,"drift_recalibrations_total":0,"drift_checks_skipped":true,"camera_gate_failed":false,"camera_gate_timeout":false,"camera_gate_policy":null,"camera_gate_failure_reason":null,"regression_module":null,"chinrest_used":false,"chinrest_passed":false,"chinrest_failure_reason":null,"chinrest_metrics":null,"device_metrics":{"screen_w":1280,"screen_h":900,"window_w":1280,"window_h":900,"devicePixelRatio":1}}},{"rt":null,"stimulus":"<div style=\"color:black; font-size:60px;\">+</div>","response":null,"trial_type":"html-keyboard-response","trial_index":20,"time_elapsed":25477,"internal_node_id":"0.0-2.0-7.0-0.1","chinrest_used":false,"chinrest_passed":false,"chinrest_failure_reason":null,"chinrest_metrics":null,"webgazer_enabled":false,"calib_passed":false,"calib_attempts":0,"camera_gate_failed":false,"camera_gate_timeout":false,"camera_gate_policy":null,"regression_module":null,"drift_checks":{"total":0,"failures":0,"recalibrations":0,"skipped":true},"calibration_report":{"attempts_total":0,"attempts":[],"final":{"calib_passed":false,"calib_strong_pass":false,"calib_terminal_fail":false,"avg_offset_px":null,"mean_in_roi":null},"drift_checks_total":0,"drift_failures_total":0,"drift_recalibrations_total":0,"drift_checks_skipped":true,"camera_gate_failed":false,"camera_gate_timeout":false,"camera_gate_policy":null,"camera_gate_failure_reason":null,"regression_module":null,"chinrest_used":false,"chinrest_passed":false,"chinrest_failure_reason":null,"chinrest_metrics":null,"device_metrics":{"screen_w":1280,"screen_h":900,"window_w":1280,"window_h":900,"devicePixelRatio":1}}},{"rt":null,"stimulus":"<img class='stimuli-allergy' src='stim/kamin/set1/s1.jpg'>","response":49,"test_part":"learning","reaction":"allergy","condition":"single-positive","trial_identity":"A2+","correct_response":49,"incorrect_response":48,"stim_left":"in/set1/s1.jpg","stim_right":"","version":"kamin","trial_type":"html-keyboard-response","trial_index":21,"time_elapsed":28492,"internal_node_id":"0.0-2.0-7.0-1.1","PROLIFIC_PID":"test123","interview_date":"03/06/2026","handedness":"right","task_version":"kamin","accuracy":1,"confidence":3.7,"index":5,"chinrest_used":false,"chinrest_passed":false,"chinrest_failure_reason":null,"chinrest_metrics":null,"webgazer_enabled":false,"calib_passed":false,"calib_attempts":0,"camera_gate_failed":false,"camera_gate_timeout":false,"camera_gate_policy":null,"regression_module":null,"drift_checks":{"total":0,"failures":0,"recalibrations":0,"skipped":true},"calibration_report":{"attempts_total":0,"attempts":[],"final":{"calib_passed":false,"calib_strong_pass":false,"calib_terminal_fail":false,"avg_offset_px":null,"mean_in_roi":null},"drift_checks_total":0,"drift_failures_total":0,"drift_recalibrations_total":0,"drift_checks_skipped":true,"camera_gate_failed":false,"camera_gate_timeout":false,"camera_gate_policy":null,"camera_gate_failure_reason":null,"regression_module":null,"chinrest_used":false,"chinrest_passed":false,"chinrest_failure_reason":null,"chinrest_metrics":null,"device_metrics":{"screen_w":1280,"screen_h":900,"window_w":1280,"window_h":900,"devicePixelRatio":1}}},{"rt":null,"stimulus":"<div class='feedback-container'><img src='stim/kamin/+.jpg'></div>","response":null,"trial_type":"html-keyboard-response","trial_index":22,"time_elapsed":29493,"internal_node_id":"0.0-2.0-7.0-2.1","chinrest_used":false,"chinrest_passed":false,"chinrest_failure_reason":null,"chinrest_metrics":null,"webgazer_enabled":false,"calib_passed":false,"calib_attempts":0,"camera_gate_failed":false,"camera_gate_timeout":false,"camera_gate_policy":null,"regression_module":null,"drift_checks":{"total":0,"failures":0,"recalibrations":0,"skipped":true},"calibration_report":{"attempts_total":0,"attempts":[],"final":{"calib_passed":false,"calib_strong_pass":false,"calib_terminal_fail":false,"avg_offset_px":null,"mean_in_roi":null},"drift_checks_total":0,"drift_failures_total":0,"drift_recalibrations_total":0,"drift_checks_skipped":true,"camera_gate_failed":false,"camera_gate_timeout":false,"camera_gate_policy":null,"camera_gate_failure_reason":null,"regression_module":null,"chinrest_used":false,"chinrest_passed":false,"chinrest_failure_reason":null,"chinrest_metrics":null,"device_metrics":{"screen_w":1280,"screen_h":900,"window_w":1280,"window_h":900,"devicePixelRatio":1}}},{"rt":null,"stimulus":"<div style=\"color:black; font-size:60px;\">+</div>","response":null,"trial_type":"html-keyboard-response","trial_index":23,"time_elapsed":30494,"internal_node_id":"0.0-2.0-7.0-0.2","chinrest_used":false,"chinrest_passed":false,"chinrest_failure_reason":null,"chinrest_metrics":null,"webgazer_enabled":false,"calib_passed":false,"calib_attempts":0,"camera_gate_failed":false,"camera_gate_timeout":false,"camera_gate_policy":null,"regression_module":null,"drift_checks":{"total":0,"failures":0,"recalibrations":0,"skipped":true},"calibration_report":{"attempts_total":0,"attempts":[],"final":{"calib_passed":false,"calib_strong_pass":false,"calib_terminal_fail":false,"avg_offset_px":null,"mean_in_roi":null},"drift_checks_total":0,"drift_failures_total":0,"drift_recalibrations_total":0,"drift_checks_skipped":true,"camera_gate_failed":false,"camera_gate_timeout":false,"camera_gate_policy":null,"camera_gate_failure_reason":null,"regression_module":null,"chinrest_used":false,"chinrest_passed":false,"chinrest_failure_reason":null,"chinrest_metrics":null,"device_metrics":{"screen_w":1280,"screen_h":900,"window_w":1280,"window_h":900,"devicePixelRatio":1}}},{"rt":null,"stimulus":"<img class='stimuli-allergy' src='stim/kamin/set1/s14.jpg'>","response":48,"test_part":"learning","reaction":"allergy","condition":"single-positive","trial_identity":"A1+","correct_response":49,"incorrect_response":48,"stim_left":"in/set1/s14.jpg","stim_right":"","version":"kamin","trial_type":"html-keyboard-response","trial_index":24,"time_elapsed":33495,"internal_node_id":"0.0-2.0-7.0-1.2","PROLIFIC_PID":"test123","interview_date":"03/06/2026","handedness":"right","task_version":"kamin","accuracy":0,"confidence":3.7,"index":6,"chinrest_used":false,"chinrest_passed":false,"chinrest_failure_reason":null,"chinrest_metrics":null,"webgazer_enabled":false,"calib_passed":false,"calib_attempts":0,"camera_gate_failed":false,"camera_gate_timeout":false,"camera_gate_policy":null,"regression_module":null,"drift_checks":{"total":0,"failures":0,"recalibrations":0,"skipped":true},"calibration_report":{"attempts_total":0,"attempts":[],"final":{"calib_passed":false,"calib_strong_pass":false,"calib_terminal_fail":false,"avg_offset_px":null,"mean_in_roi":null},"drift_checks_total":0,"drift_failures_total":0,"drift_recalibrations_total":0,"drift_checks_skipped":true,"camera_gate_failed":false,"camera_gate_timeout":false,"camera_gate_policy":null,"camera_gate_failure_reason":null,"regression_module":null,"chinrest_used":false,"chinrest_passed":false,"chinrest_failure_reason":null,"chinrest_metrics":null,"device_metrics":{"screen_w":1280,"screen_h":900,"window_w":1280,"window_h":900,"devicePixelRatio":1}}},{"rt":null,"stimulus":"<div class='feedback-container'><img src='stim/kamin/+.jpg'></div>","response":null,"trial_type":"html-keyboard-response","trial_index":25,"time_elapsed":34509,"internal_node_id":"0.0-2.0-7.0-2.2","chinrest_used":false,"chinrest_passed":false,"chinrest_failure_reason":null,"chinrest_metrics":null,"webgazer_enabled":false,"calib_passed":false,"calib_attempts":0,"camera_gate_failed":false,"camera_gate_timeout":false,"camera_gate_policy":null,"regression_module":null,"drift_checks":{"total":0,"failures":0,"recalibrations":0,"skipped":true},"calibration_report":{"attempts_total":0,"attempts":[],"final":{"calib_passed":false,"calib_strong_pass":false,"calib_terminal_fail":false,"avg_offset_px":null,"mean_in_roi":null},"drift_checks_total":0,"drift_failures_total":0,"drift_recalibrations_total":0,"drift_checks_skipped":true,"camera_gate_failed":false,"camera_gate_timeout":false,"camera_gate_policy":null,"camera_gate_failure_reason":null,"regression_module":null,"chinrest_used":false,"chinrest_passed":false,"chinrest_failure_reason":null,"chinrest_metrics":null,"device_metrics":{"screen_w":1280,"screen_h":900,"window_w":1280,"window_h":900,"devicePixelRatio":1}}},{"rt":null,"stimulus":"<div style=\"color:black; font-size:60px;\">+</div>","response":null,"trial_type":"html-keyboard-response","trial_index":26,"time_elapsed":35509,"internal_node_id":"0.0-2.0-7.0-0.3","chinrest_used":false,"chinrest_passed":false,"chinrest_failure_reason":null,"chinrest_metrics":null,"webgazer_enabled":false,"calib_passed":false,"calib_attempts":0,"camera_gate_failed":false,"camera_gate_timeout":false,"camera_gate_policy":null,"regression_module":null,"drift_checks":{"total":0,"failures":0,"recalibrations":0,"skipped":true},"calibration_report":{"attempts_total":0,"attempts":[],"final":{"calib_passed":false,"calib_strong_pass":false,"calib_terminal_fail":false,"avg_offset_px":null,"mean_in_roi":null},"drift_checks_total":0,"drift_failures_total":0,"drift_recalibrations_total":0,"drift_checks_skipped":true,"camera_gate_failed":false,"camera_gate_timeout":false,"camera_gate_policy":null,"camera_gate_failure_reason":null,"regression_module":null,"chinrest_used":false,"chinrest_passed":false,"chinrest_failure_reason":null,"chinrest_metrics":null,"device_metrics":{"screen_w":1280,"screen_h":900,"window_w":1280,"window_h":900,"devicePixelRatio":1}}},{"rt":null,"stimulus":"<img class='stimuli-allergy' src='stim/kamin/set1/s8.jpg'>","response":48,"test_part":"learning","reaction":"no-reaction","condition":"single-negative","trial_identity":"C2-","correct_response":48,"incorrect_response":49,"stim_left":"in/set1/s8.jpg","stim_right":"","version":"kamin","trial_type":"html-keyboard-response","trial_index":27,"time_elapsed":38511,"internal_node_id":"0.0-2.0-7.0-1.3","PROLIFIC_PID":"test123","interview_date":"03/06/2026","handedness":"right","task_version":"kamin","accuracy":1,"confidence":3.7,"index":7,"chinrest_used":false,"chinrest_passed":false,"chinrest_failure_reason":null,"chinrest_metrics":null,"webgazer_enabled":false,"calib_passed":false,"calib_attempts":0,"camera_gate_failed":false,"camera_gate_timeout":false,"camera_gate_policy":null,"regression_module":null,"drift_checks":{"total":0,"failures":0,"recalibrations":0,"skipped":true},"calibration_report":{"attempts_total":0,"attempts":[],"final":{"calib_passed":false,"calib_strong_pass":false,"calib_terminal_fail":false,"avg_offset_px":null,"mean_in_roi":null},"drift_checks_total":0,"drift_failures_total":0,"drift_recalibrations_total":0,"drift_checks_skipped":true,"camera_gate_failed":false,"camera_gate_timeout":false,"camera_gate_policy":null,"camera_gate_failure_reason":null,"regression_module":null,"chinrest_used":false,"chinrest_passed":false,"chinrest_failure_reason":null,"chinrest_metrics":null,"device_metrics":{"screen_w":1280,"screen_h":900,"window_w":1280,"window_h":900,"devicePixelRatio":1}}},{"rt":null,"stimulus":"<div class='feedback-container'><img src='stim/kamin/-.jpg'></div>","response":null,"trial_type":"html-keyboard-response","trial_index":28,"time_elapsed":39524,"internal_node_id":"0.0-2.0-7.0-2.3","chinrest_used":false,"chinrest_passed":false,"chinrest_failure_reason":null,"chinrest_metrics":null,"webgazer_enabled":false,"calib_passed":false,"calib_attempts":0,"camera_gate_failed":false,"camera_gate_timeout":false,"camera_gate_policy":null,"regression_module":null,"drift_checks":{"total":0,"failures":0,"recalibrations":0,"skipped":true},"calibration_report":{"attempts_total":0,"attempts":[],"final":{"calib_passed":false,"calib_strong_pass":false,"calib_terminal_fail":false,"avg_offset_px":null,"mean_in_roi":null},"drift_checks_total":0,"drift_failures_total":0,"drift_recalibrations_total":0,"drift_checks_skipped":true,"camera_gate_failed":false,"camera_gate_timeout":false,"camera_gate_policy":null,"camera_gate_failure_reason":null,"regression_module":null,"chinrest_used":false,"chinrest_passed":false,"chinrest_failure_reason":null,"chinrest_metrics":null,"device_metrics":{"screen_w":1280,"screen_h":900,"window_w":1280,"window_h":900,"devicePixelRatio":1}}},{"rt":null,"stimulus":"<div style=\"color:black; font-size:60px;\">+</div>","response":null,"trial_type":"html-keyboard-response","trial_index":29,"time_elapsed":40526,"internal_node_id":"0.0-2.0-7.0-0.4","chinrest_used":false,"chinrest_passed":false,"chinrest_failure_reason":null,"chinrest_metrics":null,"webgazer_enabled":false,"calib_passed":false,"calib_attempts":0,"camera_gate_failed":false,"camera_gate_timeout":false,"camera_gate_policy":null,"regression_module":null,"drift_checks":{"total":0,"failures":0,"recalibrations":0,"skipped":true},"calibration_report":{"attempts_total":0,"attempts":[],"final":{"calib_passed":false,"calib_strong_pass":false,"calib_terminal_fail":false,"avg_offset_px":null,"mean_in_roi":null},"drift_checks_total":0,"drift_failures_total":0,"drift_recalibrations_total":0,"drift_checks_skipped":true,"camera_gate_failed":false,"camera_gate_timeout":false,"camera_gate_policy":null,"camera_gate_failure_reason":null,"regression_module":null,"chinrest_used":false,"chinrest_passed":false,"chinrest_failure_reason":null,"chinrest_metrics":null,"device_metrics":{"screen_w":1280,"screen_h":900,"window_w":1280,"window_h":900,"devicePixelRatio":1}}},{"rt":null,"stimulus":"<img class='stimuli-allergy' src='stim/kamin/set1/s5.jpg'>","response":48,"test_part":"learning","reaction":"no-reaction","condition":"single-negative","trial_identity":"C1-","correct_response":48,"incorrect_response":49,"stim_left":"in/set1/s5.jpg","stim_right":"","version":"kamin","trial_type":"html-keyboard-response","trial_index":30,"time_elapsed":43541,"internal_node_id":"0.0-2.0-7.0-1.4","PROLIFIC_PID":"test123","interview_date":"03/06/2026","handedness":"right","task_version":"kamin","accuracy":1,"confidence":3.7,"index":8,"chinrest_used":false,"chinrest_passed":false,"chinrest_failure_reason":null,"chinrest_metrics":null,"webgazer_enabled":false,"calib_passed":false,"calib_attempts":0,"camera_gate_failed":false,"camera_gate_timeout":false,"camera_gate_policy":null,"regression_module":null,"drift_checks":{"total":0,"failures":0,"recalibrations":0,"skipped":true},"calibration_report":{"attempts_total":0,"attempts":[],"final":{"calib_passed":false,"calib_strong_pass":false,"calib_terminal_fail":false,"avg_offset_px":null,"mean_in_roi":null},"drift_checks_total":0,"drift_failures_total":0,"drift_recalibrations_total":0,"drift_checks_skipped":true,"camera_gate_failed":false,"camera_gate_timeout":false,"camera_gate_policy":null,"camera_gate_failure_reason":null,"regression_module":null,"chinrest_used":false,"chinrest_passed":false,"chinrest_failure_reason":null,"chinrest_metrics":null,"device_metrics":{"screen_w":1280,"screen_h":900,"window_w":1280,"window_h":900,"devicePixelRatio":1}}},{"rt":null,"stimulus":"<div class='feedback-container'><img src='stim/kamin/-.jpg'></div>","response":null,"trial_type":"html-keyboard-response","trial_index":31,"time_elapsed":44542,"internal_node_id":"0.0-2.0-7.0-2.4","chinrest_used":false,"chinrest_passed":false,"chinrest_failure_reason":null,"chinrest_metrics":null,"webgazer_enabled":false,"calib_passed":false,"calib_attempts":0,"camera_gate_failed":false,"camera_gate_timeout":false,"camera_gate_policy":null,"regression_module":null,"drift_checks":{"total":0,"failures":0,"recalibrations":0,"skipped":true},"calibration_report":{"attempts_total":0,"attempts":[],"final":{"calib_passed":false,"calib_strong_pass":false,"calib_terminal_fail":false,"avg_offset_px":null,"mean_in_roi":null},"drift_checks_total":0,"drift_failures_total":0,"drift_recalibrations_total":0,"drift_checks_skipped":true,"camera_gate_failed":false,"camera_gate_timeout":false,"camera_gate_policy":null,"camera_gate_failure_reason":null,"regression_module":null,"chinrest_used":false,"chinrest_passed":false,"chinrest_failure_reason":null,"chinrest_metrics":null,"device_metrics":{"screen_w":1280,"screen_h":900,"window_w":1280,"window_h":900,"devicePixelRatio":1}}},{"rt":null,"stimulus":"<div style=\"color:black; font-size:60px;\">+</div>","response":null,"trial_type":"html-keyboard-response","trial_index":32,"time_elapsed":45543,"internal_node_id":"0.0-2.0-7.0-0.5","chinrest_used":false,"chinrest_passed":false,"chinrest_failure_reason":null,"chinrest_metrics":null,"webgazer_enabled":false,"calib_passed":false,"calib_attempts":0,"camera_gate_failed":false,"camera_gate_timeout":false,"camera_gate_policy":null,"regression_module":null,"drift_checks":{"total":0,"failures":0,"recalibrations":0,"skipped":true},"calibration_report":{"attempts_total":0,"attempts":[],"final":{"calib_passed":false,"calib_strong_pass":false,"calib_terminal_fail":false,"avg_offset_px":null,"mean_in_roi":null},"drift_checks_total":0,"drift_failures_total":0,"drift_recalibrations_total":0,"drift_checks_skipped":true,"camera_gate_failed":false,"camera_gate_timeout":false,"camera_gate_policy":null,"camera_gate_failure_reason":null,"regression_module":null,"chinrest_used":false,"chinrest_passed":false,"chinrest_failure_reason":null,"chinrest_metrics":null,"device_metrics":{"screen_w":1280,"screen_h":900,"window_w":1280,"window_h":900,"devicePixelRatio":1}}},{"rt":null,"stimulus":"<img class='stimuli-allergy' src='stim/kamin/set1/s10.jpg'>","response":49,"test_part":"learning","reaction":"allergy","condition":"single-positive","trial_identity":"I+","correct_response":49,"incorrect_response":48,"stim_left":"in/set1/s10.jpg","stim_right":"","version":"kamin","trial_type":"html-keyboard-response","trial_index":33,"time_elapsed":48548,"internal_node_id":"0.0-2.0-7.0-1.5","PROLIFIC_PID":"test123","interview_date":"03/06/2026","handedness":"right","task_version":"kamin","accuracy":1,"confidence":3.7,"index":9,"chinrest_used":false,"chinrest_passed":false,"chinrest_failure_reason":null,"chinrest_metrics":null,"webgazer_enabled":false,"calib_passed":false,"calib_attempts":0,"camera_gate_failed":false,"camera_gate_timeout":false,"camera_gate_policy":null,"regression_module":null,"drift_checks":{"total":0,"failures":0,"recalibrations":0,"skipped":true},"calibration_report":{"attempts_total":0,"attempts":[],"final":{"calib_passed":false,"calib_strong_pass":false,"calib_terminal_fail":false,"avg_offset_px":null,"mean_in_roi":null},"drift_checks_total":0,"drift_failures_total":0,"drift_recalibrations_total":0,"drift_checks_skipped":true,"camera_gate_failed":false,"camera_gate_timeout":false,"camera_gate_policy":null,"camera_gate_failure_reason":null,"regression_module":null,"chinrest_used":false,"chinrest_passed":false,"chinrest_failure_reason":null,"chinrest_metrics":null,"device_metrics":{"screen_w":1280,"screen_h":900,"window_w":1280,"window_h":900,"devicePixelRatio":1}}},{"rt":null,"stimulus":"<div class='feedback-container'><img src='stim/kamin/+.jpg'></div>","response":null,"trial_type":"html-keyboard-response","trial_index":34,"time_elapsed":49555,"internal_node_id":"0.0-2.0-7.0-2.5","chinrest_used":false,"chinrest_passed":false,"chinrest_failure_reason":null,"chinrest_metrics":null,"webgazer_enabled":false,"calib_passed":false,"calib_attempts":0,"camera_gate_failed":false,"camera_gate_timeout":false,"camera_gate_policy":null,"regression_module":null,"drift_checks":{"total":0,"failures":0,"recalibrations":0,"skipped":true},"calibration_report":{"attempts_total":0,"attempts":[],"final":{"calib_passed":false,"calib_strong_pass":false,"calib_terminal_fail":false,"avg_offset_px":null,"mean_in_roi":null},"drift_checks_total":0,"drift_failures_total":0,"drift_recalibrations_total":0,"drift_checks_skipped":true,"camera_gate_failed":false,"camera_gate_timeout":false,"camera_gate_policy":null,"camera_gate_failure_reason":null,"regression_module":null,"chinrest_used":false,"chinrest_passed":false,"chinrest_failure_reason":null,"chinrest_metrics":null,"device_metrics":{"screen_w":1280,"screen_h":900,"window_w":1280,"window_h":900,"devicePixelRatio":1}}},{"rt":null,"stimulus":"<div style=\"color:black; font-size:60px;\">+</div>","response":null,"trial_type":"html-keyboard-response","trial_index":35,"time_elapsed":50559,"internal_node_id":"0.0-2.0-7.0-0.6","chinrest_used":false,"chinrest_passed":false,"chinrest_failure_reason":null,"chinrest_metrics":null,"webgazer_enabled":false,"calib_passed":false,"calib_attempts":0,"camera_gate_failed":false,"camera_gate_timeout":false,"camera_gate_policy":null,"regression_module":null,"drift_checks":{"total":0,"failures":0,"recalibrations":0,"skipped":true},"calibration_report":{"attempts_total":0,"attempts":[],"final":{"calib_passed":false,"calib_strong_pass":false,"calib_terminal_fail":false,"avg_offset_px":null,"mean_in_roi":null},"drift_checks_total":0,"drift_failures_total":0,"drift_recalibrations_total":0,"drift_checks_skipped":true,"camera_gate_failed":false,"camera_gate_timeout":false,"camera_gate_policy":null,"camera_gate_failure_reason":null,"regression_module":null,"chinrest_used":false,"chinrest_passed":false,"chinrest_failure_reason":null,"chinrest_metrics":null,"device_metrics":{"screen_w":1280,"screen_h":900,"window_w":1280,"window_h":900,"devicePixelRatio":1}}},{"rt":null,"stimulus":"<img class='stimuli-allergy' src='stim/kamin/set1/s2.jpg'>","response":48,"test_part":"learning","reaction":"no-reaction","condition":"single-negative","trial_identity":"J-","correct_response":48,"incorrect_response":49,"stim_left":"in/set1/s2.jpg","stim_right":"","version":"kamin","trial_type":"html-keyboard-response","trial_index":36,"time_elapsed":53560,"internal_node_id":"0.0-2.0-7.0-1.6","PROLIFIC_PID":"test123","interview_date":"03/06/2026","handedness":"right","task_version":"kamin","accuracy":1,"confidence":3.7,"index":10,"chinrest_used":false,"chinrest_passed":false,"chinrest_failure_reason":null,"chinrest_metrics":null,"webgazer_enabled":false,"calib_passed":false,"calib_attempts":0,"camera_gate_failed":false,"camera_gate_timeout":false,"camera_gate_policy":null,"regression_module":null,"drift_checks":{"total":0,"failures":0,"recalibrations":0,"skipped":true},"calibration_report":{"attempts_total":0,"attempts":[],"final":{"calib_passed":false,"calib_strong_pass":false,"calib_terminal_fail":false,"avg_offset_px":null,"mean_in_roi":null},"drift_checks_total":0,"drift_failures_total":0,"drift_recalibrations_total":0,"drift_checks_skipped":true,"camera_gate_failed":false,"camera_gate_timeout":false,"camera_gate_policy":null,"camera_gate_failure_reason":null,"regression_module":null,"chinrest_used":false,"chinrest_passed":false,"chinrest_failure_reason":null,"chinrest_metrics":null,"device_metrics":{"screen_w":1280,"screen_h":900,"window_w":1280,"window_h":900,"devicePixelRatio":1}}},{"rt":null,"stimulus":"<div class='feedback-container'><img src='stim/kamin/-.jpg'></div>","response":null,"trial_type":"html-keyboard-response","trial_index":37,"time_elapsed":54572,"internal_node_id":"0.0-2.0-7.0-2.6","chinrest_used":false,"chinrest_passed":false,"chinrest_failure_reason":null,"chinrest_metrics":null,"webgazer_enabled":false,"calib_passed":false,"calib_attempts":0,"camera_gate_failed":false,"camera_gate_timeout":false,"camera_gate_policy":null,"regression_module":null,"drift_checks":{"total":0,"failures":0,"recalibrations":0,"skipped":true},"calibration_report":{"attempts_total":0,"attempts":[],"final":{"calib_passed":false,"calib_strong_pass":false,"calib_terminal_fail":false,"avg_offset_px":null,"mean_in_roi":null},"drift_checks_total":0,"drift_failures_total":0,"drift_recalibrations_total":0,"drift_checks_skipped":true,"camera_gate_failed":false,"camera_gate_timeout":false,"camera_gate_policy":null,"camera_gate_failure_reason":null,"regression_module":null,"chinrest_used":false,"chinrest_passed":false,"chinrest_failure_reason":null,"chinrest_metrics":null,"device_metrics":{"screen_w":1280,"screen_h":900,"window_w":1280,"window_h":900,"devicePixelRatio":1}}},{"rt":null,"stimulus":"<div style=\"color:black; font-size:60px;\">+</div>","response":null,"trial_type":"html-keyboard-response","trial_index":38,"time_elapsed":55574,"internal_node_id":"0.0-2.0-7.0-0.7","chinrest_used":false,"chinrest_passed":false,"chinrest_failure_reason":null,"chinrest_metrics":null,"webgazer_enabled":false,"calib_passed":false,"calib_attempts":0,"camera_gate_failed":false,"camera_gate_timeout":false,"camera_gate_policy":null,"regression_module":null,"drift_checks":{"total":0,"failures":0,"recalibrations":0,"skipped":true},"calibration_report":{"attempts_total":0,"attempts":[],"final":{"calib_passed":false,"calib_strong_pass":false,"calib_terminal_fail":false,"avg_offset_px":null,"mean_in_roi":null},"drift_checks_total":0,"drift_failures_total":0,"drift_recalibrations_total":0,"drift_checks_skipped":true,"camera_gate_failed":false,"camera_gate_timeout":false,"camera_gate_policy":null,"camera_gate_failure_reason":null,"regression_module":null,"chinrest_used":false,"chinrest_passed":false,"chinrest_failure_reason":null,"chinrest_metrics":null,"device_metrics":{"screen_w":1280,"screen_h":900,"window_w":1280,"window_h":900,"devicePixelRatio":1}}},{"rt":null,"stimulus":"<img class='stimuli-allergy' src='stim/kamin/set1/s6.jpg'>","response":49,"test_part":"learning","reaction":"no-reaction","condition":"single-negative","trial_identity":"F-","correct_response":48,"incorrect_response":49,"stim_left":"in/set1/s6.jpg","stim_right":"","version":"kamin","trial_type":"html-keyboard-response","trial_index":39,"time_elapsed":58576,"internal_node_id":"0.0-2.0-7.0-1.7","PROLIFIC_PID":"test123","interview_date":"03/06/2026","handedness":"right","task_version":"kamin","accuracy":0,"confidence":3.7,"index":11,"chinrest_used":false,"chinrest_passed":false,"chinrest_failure_reason":null,"chinrest_metrics":null,"webgazer_enabled":false,"calib_passed":false,"calib_attempts":0,"camera_gate_failed":false,"camera_gate_timeout":false,"camera_gate_policy":null,"regression_module":null,"drift_checks":{"total":0,"failures":0,"recalibrations":0,"skipped":true},"calibration_report":{"attempts_total":0,"attempts":[],"final":{"calib_passed":false,"calib_strong_pass":false,"calib_terminal_fail":false,"avg_offset_px":null,"mean_in_roi":null},"drift_checks_total":0,"drift_failures_total":0,"drift_recalibrations_total":0,"drift_checks_skipped":true,"camera_gate_failed":false,"camera_gate_timeout":false,"camera_gate_policy":null,"camera_gate_failure_reason":null,"regression_module":null,"chinrest_used":false,"chinrest_passed":false,"chinrest_failure_reason":null,"chinrest_metrics":null,"device_metrics":{"screen_w":1280,"screen_h":900,"window_w":1280,"window_h":900,"devicePixelRatio":1}}},{"rt":null,"stimulus":"<div class='feedback-container'><img src='stim/kamin/-.jpg'></div>","response":null,"trial_type":"html-keyboard-response","trial_index":40,"time_elapsed":59586,"internal_node_id":"0.0-2.0-7.0-2.7","chinrest_used":false,"chinrest_passed":false,"chinrest_failure_reason":null,"chinrest_metrics":null,"webgazer_enabled":false,"calib_passed":false,"calib_attempts":0,"camera_gate_failed":false,"camera_gate_timeout":false,"camera_gate_policy":null,"regression_module":null,"drift_checks":{"total":0,"failures":0,"recalibrations":0,"skipped":true},"calibration_report":{"attempts_total":0,"attempts":[],"final":{"calib_passed":false,"calib_strong_pass":false,"calib_terminal_fail":false,"avg_offset_px":null,"mean_in_roi":null},"drift_checks_total":0,"drift_failures_total":0,"drift_recalibrations_total":0,"drift_checks_skipped":true,"camera_gate_failed":false,"camera_gate_timeout":false,"camera_gate_policy":null,"camera_gate_failure_reason":null,"regression_module":null,"chinrest_used":false,"chinrest_passed":false,"chinrest_failure_reason":null,"chinrest_metrics":null,"device_metrics":{"screen_w":1280,"screen_h":900,"window_w":1280,"window_h":900,"devicePixelRatio":1}}},{"rt":null,"stimulus":"<div style=\"color:black; font-size:60px;\">+</div>","response":null,"trial_type":"html-keyboard-response","trial_index":41,"time_elapsed":60592,"internal_node_id":"0.0-2.0-7.0-0.8","chinrest_used":false,"chinrest_passed":false,"chinrest_failure_reason":null,"chinrest_metrics":null,"webgazer_enabled":false,"calib_passed":false,"calib_attempts":0,"camera_gate_failed":false,"camera_gate_timeout":false,"camera_gate_policy":null,"regression_module":null,"drift_checks":{"total":0,"failures":0,"recalibrations":0,"skipped":true},"calibration_report":{"attempts_total":0,"attempts":[],"final":{"calib_passed":false,"calib_strong_pass":false,"calib_terminal_fail":false,"avg_offset_px":null,"mean_in_roi":null},"drift_checks_total":0,"drift_failures_total":0,"drift_recalibrations_total":0,"drift_checks_skipped":true,"camera_gate_failed":false,"camera_gate_timeout":false,"camera_gate_policy":null,"camera_gate_failure_reason":null,"regression_module":null,"chinrest_used":false,"chinrest_passed":false,"chinrest_failure_reason":null,"chinrest_metrics":null,"device_metrics":{"screen_w":1280,"screen_h":900,"window_w":1280,"window_h":900,"devicePixelRatio":1}}},{"rt":null,"stimulus":"<img class='stimuli-allergy' src='stim/kamin/set1/s8.jpg'>","response":49,"test_part":"learning","reaction":"no-reaction","condition":"single-negative","trial_identity":"C2-","correct_response":48,"incorrect_response":49,"stim_left":"in/set1/s8.jpg","stim_right":"","version":"kamin","trial_type":"html-keyboard-response","trial_index":42,"time_elapsed":63602,"internal_node_id":"0.0-2.0-7.0-1.8","PROLIFIC_PID":"test123","interview_date":"03/06/2026","handedness":"right","task_version":"kamin","accuracy":0,"confidence":3.7,"index":12,"chinrest_used":false,"chinrest_passed":false,"chinrest_failure_reason":null,"chinrest_metrics":null,"webgazer_enabled":false,"calib_passed":false,"calib_attempts":0,"camera_gate_failed":false,"camera_gate_timeout":false,"camera_gate_policy":null,"regression_module":null,"drift_checks":{"total":0,"failures":0,"recalibrations":0,"skipped":true},"calibration_report":{"attempts_total":0,"attempts":[],"final":{"calib_passed":false,"calib_strong_pass":false,"calib_terminal_fail":false,"avg_offset_px":null,"mean_in_roi":null},"drift_checks_total":0,"drift_failures_total":0,"drift_recalibrations_total":0,"drift_checks_skipped":true,"camera_gate_failed":false,"camera_gate_timeout":false,"camera_gate_policy":null,"camera_gate_failure_reason":null,"regression_module":null,"chinrest_used":false,"chinrest_passed":false,"chinrest_failure_reason":null,"chinrest_metrics":null,"device_metrics":{"screen_w":1280,"screen_h":900,"window_w":1280,"window_h":900,"devicePixelRatio":1}}},{"rt":null,"stimulus":"<div class='feedback-container'><img src='stim/kamin/-.jpg'></div>","response":null,"trial_type":"html-keyboard-response","trial_index":43,"time_elapsed":64606,"internal_node_id":"0.0-2.0-7.0-2.8","chinrest_used":false,"chinrest_passed":false,"chinrest_failure_reason":null,"chinrest_metrics":null,"webgazer_enabled":false,"calib_passed":false,"calib_attempts":0,"camera_gate_failed":false,"camera_gate_timeout":false,"camera_gate_policy":null,"regression_module":null,"drift_checks":{"total":0,"failures":0,"recalibrations":0,"skipped":true},"calibration_report":{"attempts_total":0,"attempts":[],"final":{"calib_passed":false,"calib_strong_pass":false,"calib_terminal_fail":false,"avg_offset_px":null,"mean_in_roi":null},"drift_checks_total":0,"drift_failures_total":0,"drift_recalibrations_total":0,"drift_checks_skipped":true,"camera_gate_failed":false,"camera_gate_timeout":false,"camera_gate_policy":null,"camera_gate_failure_reason":null,"regression_module":null,"chinrest_used":false,"chinrest_passed":false,"chinrest_failure_reason":null,"chinrest_metrics":null,"device_metrics":{"screen_w":1280,"screen_h":900,"window_w":1280,"window_h":900,"devicePixelRatio":1}}},{"rt":null,"stimulus":"<div style=\"color:black; font-size:60px;\">+</div>","response":null,"trial_type":"html-keyboard-response","trial_index":44,"time_elapsed":65609,"internal_node_id":"0.0-2.0-7.0-0.9","chinrest_used":false,"chinrest_passed":false,"chinrest_failure_reason":null,"chinrest_metrics":null,"webgazer_enabled":false,"calib_passed":false,"calib_attempts":0,"camera_gate_failed":false,"camera_gate_timeout":false,"camera_gate_policy":null,"regression_module":null,"drift_checks":{"total":0,"failures":0,"recalibrations":0,"skipped":true},"calibration_report":{"attempts_total":0,"attempts":[],"final":{"calib_passed":false,"calib_strong_pass":false,"calib_terminal_fail":false,"avg_offset_px":null,"mean_in_roi":null},"drift_checks_total":0,"drift_failures_total":0,"drift_recalibrations_total":0,"drift_checks_skipped":true,"camera_gate_failed":false,"camera_gate_timeout":false,"camera_gate_policy":null,"camera_gate_failure_reason":null,"regression_module":null,"chinrest_used":false,"chinrest_passed":false,"chinrest_failure_reason":null,"chinrest_metrics":null,"device_metrics":{"screen_w":1280,"screen_h":900,"window_w":1280,"window_h":900,"devicePixelRatio":1}}},{"rt":null,"stimulus":"<img class='stimuli-allergy' src='stim/kamin/set1/s10.jpg'>","response":49,"test_part":"learning","reaction":"allergy","condition":"single-positive","trial_identity":"I+","correct_response":49,"incorrect_response":48,"stim_left":"in/set1/s10.jpg","stim_right":"","version":"kamin","trial_type":"html-keyboard-response","trial_index":45,"time_elapsed":68620,"internal_node_id":"0.0-2.0-7.0-1.9","PROLIFIC_PID":"test123","interview_date":"03/06/2026","handedness":"right","task_version":"kamin","accuracy":1,"confidence":3.7,"index":13,"chinrest_used":false,"chinrest_passed":false,"chinrest_failure_reason":null,"chinrest_metrics":null,"webgazer_enabled":false,"calib_passed":false,"calib_attempts":0,"camera_gate_failed":false,"camera_gate_timeout":false,"camera_gate_policy":null,"regression_module":null,"drift_checks":{"total":0,"failures":0,"recalibrations":0,"skipped":true},"calibration_report":{"attempts_total":0,"attempts":[],"final":{"calib_passed":false,"calib_strong_pass":false,"calib_terminal_fail":false,"avg_offset_px":null,"mean_in_roi":null},"drift_checks_total":0,"drift_failures_total":0,"drift_recalibrations_total":0,"drift_checks_skipped":true,"camera_gate_failed":false,"camera_gate_timeout":false,"camera_gate_policy":null,"camera_gate_failure_reason":null,"regression_module":null,"chinrest_used":false,"chinrest_passed":false,"chinrest_failure_reason":null,"chinrest_metrics":null,"device_metrics":{"screen_w":1280,"screen_h":900,"window_w":1280,"window_h":900,"devicePixelRatio":1}}},{"rt":null,"stimulus":"<div class='feedback-container'><img src='stim/kamin/+.jpg'></div>","response":null,"trial_type":"html-keyboard-response","trial_index":46,"time_elapsed":69625,"internal_node_id":"0.0-2.0-7.0-2.9","chinrest_used":false,"chinrest_passed":false,"chinrest_failure_reason":null,"chinrest_metrics":null,"webgazer_enabled":false,"calib_passed":false,"calib_attempts":0,"camera_gate_failed":false,"camera_gate_timeout":false,"camera_gate_policy":null,"regression_module":null,"drift_checks":{"total":0,"failures":0,"recalibrations":0,"skipped":true},"calibration_report":{"attempts_total":0,"attempts":[],"final":{"calib_passed":false,"calib_strong_pass":false,"calib_terminal_fail":false,"avg_offset_px":null,"mean_in_roi":null},"drift_checks_total":0,"drift_failures_total":0,"drift_recalibrations_total":0,"drift_checks_skipped":true,"camera_gate_failed":false,"camera_gate_timeout":false,"camera_gate_policy":null,"camera_gate_failure_reason":null,"regression_module":null,"chinrest_used":false,"chinrest_passed":false,"chinrest_failure_reason":null,"chinrest_metrics":null,"device_metrics":{"screen_w":1280,"screen_h":900,"window_w":1280,"window_h":900,"devicePixelRatio":1}}},{"rt":null,"stimulus":"<div style=\"color:black; font-size:60px;\">+</div>","response":null,"trial_type":"html-keyboard-response","trial_index":47,"time_elapsed":70638,"internal_node_id":"0.0-2.0-7.0-0.10","chinrest_used":false,"chinrest_passed":false,"chinrest_failure_reason":null,"chinrest_metrics":null,"webgazer_enabled":false,"calib_passed":false,"calib_attempts":0,"camera_gate_failed":false,"camera_gate_timeout":false,"camera_gate_policy":null,"regression_module":null,"drift_checks":{"total":0,"failures":0,"recalibrations":0,"skipped":true},"calibration_report":{"attempts_total":0,"attempts":[],"final":{"calib_passed":false,"calib_strong_pass":false,"calib_terminal_fail":false,"avg_offset_px":null,"mean_in_roi":null},"drift_checks_total":0,"drift_failures_total":0,"drift_recalibrations_total":0,"drift_checks_skipped":true,"camera_gate_failed":false,"camera_gate_timeout":false,"camera_gate_policy":null,"camera_gate_failure_reason":null,"regression_module":null,"chinrest_used":false,"chinrest_passed":false,"chinrest_failure_reason":null,"chinrest_metrics":null,"device_metrics":{"screen_w":1280,"screen_h":900,"window_w":1280,"window_h":900,"devicePixelRatio":1}}},{"rt":null,"stimulus":"<img class='stimuli-allergy' src='stim/kamin/set1/s1.jpg'>","response":48,"test_part":"learning","reaction":"allergy","condition":"single-positive","trial_identity":"A2+","correct_response":49,"incorrect_response":48,"stim_left":"in/set1/s1.jpg","stim_right":"","version":"kamin","trial_type":"html-keyboard-response","trial_index":48,"time_elapsed":73642,"internal_node_id":"0.0-2.0-7.0-1.10","PROLIFIC_PID":"test123","interview_date":"03/06/2026","handedness":"right","task_version":"kamin","accuracy":0,"confidence":3.7,"index":14,"chinrest_used":false,"chinrest_passed":false,"chinrest_failure_reason":null,"chinrest_metrics":null,"webgazer_enabled":false,"calib_passed":false,"calib_attempts":0,"camera_gate_failed":false,"camera_gate_timeout":false,"camera_gate_policy":null,"regression_module":null,"drift_checks":{"total":0,"failures":0,"recalibrations":0,"skipped":true},"calibration_report":{"attempts_total":0,"attempts":[],"final":{"calib_passed":false,"calib_strong_pass":false,"calib_terminal_fail":false,"avg_offset_px":null,"mean_in_roi":null},"drift_checks_total":0,"drift_failures_total":0,"drift_recalibrations_total":0,"drift_checks_skipped":true,"camera_gate_failed":false,"camera_gate_timeout":false,"camera_gate_policy":null,"camera_gate_failure_reason":null,"regression_module":null,"chinrest_used":false,"chinrest_passed":false,"chinrest_failure_reason":null,"chinrest_metrics":null,"device_metrics":{"screen_w":1280,"screen_h":900,"window_w":1280,"window_h":900,"devicePixelRatio":1}}},{"rt":null,"stimulus":"<div class='feedback-container'><img src='stim/kamin/+.jpg'></div>","response":null,"trial_type":"html-keyboard-response","trial_index":49,"time_elapsed":74655,"internal_node_id":"0.0-2.0-7.0-2.10","chinrest_used":false,"chinrest_passed":false,"chinrest_failure_reason":null,"chinrest_metrics":null,"webgazer_enabled":false,"calib_passed":false,"calib_attempts":0,"camera_gate_failed":false,"camera_gate_timeout":false,"camera_gate_policy":null,"regression_module":null,"drift_checks":{"total":0,"failures":0,"recalibrations":0,"skipped":true},"calibration_report":{"attempts_total":0,"attempts":[],"final":{"calib_passed":false,"calib_strong_pass":false,"calib_terminal_fail":false,"avg_offset_px":null,"mean_in_roi":null},"drift_checks_total":0,"drift_failures_total":0,"drift_recalibrations_total":0,"drift_checks_skipped":true,"camera_gate_failed":false,"camera_gate_timeout":false,"camera_gate_policy":null,"camera_gate_failure_reason":null,"regression_module":null,"chinrest_used":false,"chinrest_passed":false,"chinrest_failure_reason":null,"chinrest_metrics":null,"device_metrics":{"screen_w":1280,"screen_h":900,"window_w":1280,"window_h":900,"devicePixelRatio":1}}},{"rt":null,"stimulus":"<div style=\"color:black; font-size:60px;\">+</div>","response":null,"trial_type":"html-keyboard-response","trial_index":50,"time_elapsed":75657,"internal_node_id":"0.0-2.0-7.0-0.11","chinrest_used":false,"chinrest_passed":false,"chinrest_failure_reason":null,"chinrest_metrics":null,"webgazer_enabled":false,"calib_passed":false,"calib_attempts":0,"camera_gate_failed":false,"camera_gate_timeout":false,"camera_gate_policy":null,"regression_module":null,"drift_checks":{"total":0,"failures":0,"recalibrations":0,"skipped":true},"calibration_report":{"attempts_total":0,"attempts":[],"final":{"calib_passed":false,"calib_strong_pass":false,"calib_terminal_fail":false,"avg_offset_px":null,"mean_in_roi":null},"drift_checks_total":0,"drift_failures_total":0,"drift_recalibrations_total":0,"drift_checks_skipped":true,"camera_gate_failed":false,"camera_gate_timeout":false,"camera_gate_policy":null,"camera_gate_failure_reason":null,"regression_module":null,"chinrest_used":false,"chinrest_passed":false,"chinrest_failure_reason":null,"chinrest_metrics":null,"device_metrics":{"screen_w":1280,"screen_h":900,"window_w":1280,"window_h":900,"devicePixelRatio":1}}},{"rt":null,"stimulus":"<img class='stimuli-allergy' src='stim/kamin/set1/s2.jpg'>","response":49,"test_part":"learning","reaction":"no-reaction","condition":"single-negative","trial_identity":"J-","correct_response":48,"incorrect_response":49,"stim_left":"in/set1/s2.jpg","stim_right":"","version":"kamin","trial_type":"html-keyboard-response","trial_index":51,"time_elapsed":78661,"internal_node_id":"0.0-2.0-7.0-1.11","PROLIFIC_PID":"test123","interview_date":"03/06/2026","handedness":"right","task_version":"kamin","accuracy":0,"confidence":3.7,"index":15,"chinrest_used":false,"chinrest_passed":false,"chinrest_failure_reason":null,"chinrest_metrics":null,"webgazer_enabled":false,"calib_passed":false,"calib_attempts":0,"camera_gate_failed":false,"camera_gate_timeout":false,"camera_gate_policy":null,"regression_module":null,"drift_checks":{"total":0,"failures":0,"recalibrations":0,"skipped":true},"calibration_report":{"attempts_total":0,"attempts":[],"final":{"calib_passed":false,"calib_strong_pass":false,"calib_terminal_fail":false,"avg_offset_px":null,"mean_in_roi":null},"drift_checks_total":0,"drift_failures_total":0,"drift_recalibrations_total":0,"drift_checks_skipped":true,"camera_gate_failed":false,"camera_gate_timeout":false,"camera_gate_policy":null,"camera_gate_failure_reason":null,"regression_module":null,"chinrest_used":false,"chinrest_passed":false,"chinrest_failure_reason":null,"chinrest_metrics":null,"device_metrics":{"screen_w":1280,"screen_h":900,"window_w":1280,"window_h":900,"devicePixelRatio":1}}},{"rt":null,"stimulus":"<div class='feedback-container'><img src='stim/kamin/-.jpg'></div>","response":null,"trial_type":"html-keyboard-response","trial_index":52,"time_elapsed":79662,"internal_node_id":"0.0-2.0-7.0-2.11","chinrest_used":false,"chinrest_passed":false,"chinrest_failure_reason":null,"chinrest_metrics":null,"webgazer_enabled":false,"calib_passed":false,"calib_attempts":0,"camera_gate_failed":false,"camera_gate_timeout":false,"camera_gate_policy":null,"regression_module":null,"drift_checks":{"total":0,"failures":0,"recalibrations":0,"skipped":true},"calibration_report":{"attempts_total":0,"attempts":[],"final":{"calib_passed":false,"calib_strong_pass":false,"calib_terminal_fail":false,"avg_offset_px":null,"mean_in_roi":null},"drift_checks_total":0,"drift_failures_total":0,"drift_recalibrations_total":0,"drift_checks_skipped":true,"camera_gate_failed":false,"camera_gate_timeout":false,"camera_gate_policy":null,"camera_gate_failure_reason":null,"regression_module":null,"chinrest_used":false,"chinrest_passed":false,"chinrest_failure_reason":null,"chinrest_metrics":null,"device_metrics":{"screen_w":1280,"screen_h":900,"window_w":1280,"window_h":900,"devicePixelRatio":1}}},{"rt":null,"stimulus":"<div style=\"color:black; font-size:60px;\">+</div>","response":null,"trial_type":"html-keyboard-response","trial_index":53,"time_elapsed":80665,"internal_node_id":"0.0-2.0-7.0-0.12","chinrest_used":false,"chinrest_passed":false,"chinrest_failure_reason":null,"chinrest_metrics":null,"webgazer_enabled":false,"calib_passed":false,"calib_attempts":0,"camera_gate_failed":false,"camera_gate_timeout":false,"camera_gate_policy":null,"regression_module":null,"drift_checks":{"total":0,"failures":0,"recalibrations":0,"skipped":true},"calibration_report":{"attempts_total":0,"attempts":[],"final":{"calib_passed":false,"calib_strong_pass":false,"calib_terminal_fail":false,"avg_offset_px":null,"mean_in_roi":null},"drift_checks_total":0,"drift_failures_total":0,"drift_recalibrations_total":0,"drift_checks_skipped":true,"camera_gate_failed":false,"camera_gate_timeout":false,"camera_gate_policy":null,"camera_gate_failure_reason":null,"regression_module":null,"chinrest_used":false,"chinrest_passed":false,"chinrest_failure_reason":null,"chinrest_metrics":null,"device_metrics":{"screen_w":1280,"screen_h":900,"window_w":1280,"window_h":900,"devicePixelRatio":1}}},{"rt":null,"stimulus":"<img class='stimuli-allergy' src='stim/kamin/set1/s5.jpg'>","response":49,"test_part":"learning","reaction":"no-reaction","condition":"single-negative","trial_identity":"C1-","correct_response":48,"incorrect_response":49,"stim_left":"in/set1/s5.jpg","stim_right":"","version":"kamin","trial_type":"html-keyboard-response","trial_index":54,"time_elapsed":83667,"internal_node_id":"0.0-2.0-7.0-1.12","PROLIFIC_PID":"test123","interview_date":"03/06/2026","handedness":"right","task_version":"kamin","accuracy":0,"confidence":3.7,"index":16,"chinrest_used":false,"chinrest_passed":false,"chinrest_failure_reason":null,"chinrest_metrics":null,"webgazer_enabled":false,"calib_passed":false,"calib_attempts":0,"camera_gate_failed":false,"camera_gate_timeout":false,"camera_gate_policy":null,"regression_module":null,"drift_checks":{"total":0,"failures":0,"recalibrations":0,"skipped":true},"calibration_report":{"attempts_total":0,"attempts":[],"final":{"calib_passed":false,"calib_strong_pass":false,"calib_terminal_fail":false,"avg_offset_px":null,"mean_in_roi":null},"drift_checks_total":0,"drift_failures_total":0,"drift_recalibrations_total":0,"drift_checks_skipped":true,"camera_gate_failed":false,"camera_gate_timeout":false,"camera_gate_policy":null,"camera_gate_failure_reason":null,"regression_module":null,"chinrest_used":false,"chinrest_passed":false,"chinrest_failure_reason":null,"chinrest_metrics":null,"device_metrics":{"screen_w":1280,"screen_h":900,"window_w":1280,"window_h":900,"devicePixelRatio":1}}},{"rt":null,"stimulus":"<div class='feedback-container'><img src='stim/kamin/-.jpg'></div>","response":null,"trial_type":"html-keyboard-response","trial_index":55,"time_elapsed":84670,"internal_node_id":"0.0-2.0-7.0-2.12","chinrest_used":false,"chinrest_passed":false,"chinrest_failure_reason":null,"chinrest_metrics":null,"webgazer_enabled":false,"calib_passed":false,"calib_attempts":0,"camera_gate_failed":false,"camera_gate_timeout":false,"camera_gate_policy":null,"regression_module":null,"drift_checks":{"total":0,"failures":0,"recalibrations":0,"skipped":true},"calibration_report":{"attempts_total":0,"attempts":[],"final":{"calib_passed":false,"calib_strong_pass":false,"calib_terminal_fail":false,"avg_offset_px":null,"mean_in_roi":null},"drift_checks_total":0,"drift_failures_total":0,"drift_recalibrations_total":0,"drift_checks_skipped":true,"camera_gate_failed":false,"camera_gate_timeout":false,"camera_gate_policy":null,"camera_gate_failure_reason":null,"regression_module":null,"chinrest_used":false,"chinrest_passed":false,"chinrest_failure_reason":null,"chinrest_metrics":null,"device_metrics":{"screen_w":1280,"screen_h":900,"window_w":1280,"window_h":900,"devicePixelRatio":1}}},{"rt":null,"stimulus":"<div style=\"color:black; font-size:60px;\">+</div>","response":null,"trial_type":"html-keyboard-response","trial_index":56,"time_elapsed":85675,"internal_node_id":"0.0-2.0-7.0-0.13","chinrest_used":false,"chinrest_passed":false,"chinrest_failure_reason":null,"chinrest_metrics":null,"webgazer_enabled":false,"calib_passed":false,"calib_attempts":0,"camera_gate_failed":false,"camera_gate_timeout":false,"camera_gate_policy":null,"regression_module":null,"drift_checks":{"total":0,"failures":0,"recalibrations":0,"skipped":true},"calibration_report":{"attempts_total":0,"attempts":[],"final":{"calib_passed":false,"calib_strong_pass":false,"calib_terminal_fail":false,"avg_offset_px":null,"mean_in_roi":null},"drift_checks_total":0,"drift_failures_total":0,"drift_recalibrations_total":0,"drift_checks_skipped":true,"camera_gate_failed":false,"camera_gate_timeout":false,"camera_gate_policy":null,"camera_gate_failure_reason":null,"regression_module":null,"chinrest_used":false,"chinrest_passed":false,"chinrest_failure_reason":null,"chinrest_metrics":null,"device_metrics":{"screen_w":1280,"screen_h":900,"window_w":1280,"window_h":900,"devicePixelRatio":1}}},{"rt":null,"stimulus":"<img class='stimuli-allergy' src='stim/kamin/set1/s14.jpg'>","response":48,"test_part":"learning","reaction":"allergy","condition":"single-positive","trial_identity":"A1+","correct_response":49,"incorrect_response":48,"stim_left":"in/set1/s14.jpg","stim_right":"","version":"kamin","trial_type":"html-keyboard-response","trial_index":57,"time_elapsed":88682,"internal_node_id":"0.0-2.0-7.0-1.13","PROLIFIC_PID":"test123","interview_date":"03/06/2026","handedness":"right","task_version":"kamin","accuracy":0,"confidence":3.7,"index":17,"chinrest_used":false,"chinrest_passed":false,"chinrest_failure_reason":null,"chinrest_metrics":null,"webgazer_enabled":false,"calib_passed":false,"calib_attempts":0,"camera_gate_failed":false,"camera_gate_timeout":false,"camera_gate_policy":null,"regression_module":null,"drift_checks":{"total":0,"failures":0,"recalibrations":0,"skipped":true},"calibration_report":{"attempts_total":0,"attempts":[],"final":{"calib_passed":false,"calib_strong_pass":false,"calib_terminal_fail":false,"avg_offset_px":null,"mean_in_roi":null},"drift_checks_total":0,"drift_failures_total":0,"drift_recalibrations_total":0,"drift_checks_skipped":true,"camera_gate_failed":false,"camera_gate_timeout":false,"camera_gate_policy":null,"camera_gate_failure_reason":null,"regression_module":null,"chinrest_used":false,"chinrest_passed":false,"chinrest_failure_reason":null,"chinrest_metrics":null,"device_metrics":{"screen_w":1280,"screen_h":900,"window_w":1280,"window_h":900,"devicePixelRatio":1}}},{"rt":null,"stimulus":"<div class='feedback-container'><img src='stim/kamin/+.jpg'></div>","response":null,"trial_type":"html-keyboard-response","trial_index":58,"time_elapsed":89684,"internal_node_id":"0.0-2.0-7.0-2.13","chinrest_used":false,"chinrest_passed":false,"chinrest_failure_reason":null,"chinrest_metrics":null,"webgazer_enabled":false,"calib_passed":false,"calib_attempts":0,"camera_gate_failed":false,"camera_gate_timeout":false,"camera_gate_policy":null,"regression_module":null,"drift_checks":{"total":0,"failures":0,"recalibrations":0,"skipped":true},"calibration_report":{"attempts_total":0,"attempts":[],"final":{"calib_passed":false,"calib_strong_pass":false,"calib_terminal_fail":false,"avg_offset_px":null,"mean_in_roi":null},"drift_checks_total":0,"drift_failures_total":0,"drift_recalibrations_total":0,"drift_checks_skipped":true,"camera_gate_failed":false,"camera_gate_timeout":false,"camera_gate_policy":null,"camera_gate_failure_reason":null,"regression_module":null,"chinrest_used":false,"chinrest_passed":false,"chinrest_failure_reason":null,"chinrest_metrics":null,"device_metrics":{"screen_w":1280,"screen_h":900,"window_w":1280,"window_h":900,"devicePixelRatio":1}}},{"rt":null,"stimulus":"<div style=\"color:black; font-size:60px;\">+</div>","response":null,"trial_type":"html-keyboard-response","trial_index":59,"time_elapsed":90685,"internal_node_id":"0.0-2.0-7.0-0.14","chinrest_used":false,"chinrest_passed":false,"chinrest_failure_reason":null,"chinrest_metrics":null,"webgazer_enabled":false,"calib_passed":false,"calib_attempts":0,"camera_gate_failed":false,"camera_gate_timeout":false,"camera_gate_policy":null,"regression_module":null,"drift_checks":{"total":0,"failures":0,"recalibrations":0,"skipped":true},"calibration_report":{"attempts_total":0,"attempts":[],"final":{"calib_passed":false,"calib_strong_pass":false,"calib_terminal_fail":false,"avg_offset_px":null,"mean_in_roi":null},"drift_checks_total":0,"drift_failures_total":0,"drift_recalibrations_total":0,"drift_checks_skipped":true,"camera_gate_failed":false,"camera_gate_timeout":false,"camera_gate_policy":null,"camera_gate_failure_reason":null,"regression_module":null,"chinrest_used":false,"chinrest_passed":false,"chinrest_failure_reason":null,"chinrest_metrics":null,"device_metrics":{"screen_w":1280,"screen_h":900,"window_w":1280,"window_h":900,"devicePixelRatio":1}}},{"rt":null,"stimulus":"<img class='stimuli-allergy' src='stim/kamin/set1/s14.jpg'>","response":49,"test_part":"learning","reaction":"allergy","condition":"single-positive","trial_identity":"A1+","correct_response":49,"incorrect_response":48,"stim_left":"in/set1/s14.jpg","stim_right":"","version":"kamin","trial_type":"html-keyboard-response","trial_index":60,"time_elapsed":93688,"internal_node_id":"0.0-2.0-7.0-1.14","PROLIFIC_PID":"test123","interview_date":"03/06/2026","handedness":"right","task_version":"kamin","accuracy":1,"confidence":3.7,"index":18,"chinrest_used":false,"chinrest_passed":false,"chinrest_failure_reason":null,"chinrest_metrics":null,"webgazer_enabled":false,"calib_passed":false,"calib_attempts":0,"camera_gate_failed":false,"camera_gate_timeout":false,"camera_gate_policy":null,"regression_module":null,"drift_checks":{"total":0,"failures":0,"recalibrations":0,"skipped":true},"calibration_report":{"attempts_total":0,"attempts":[],"final":{"calib_passed":false,"calib_strong_pass":false,"calib_terminal_fail":false,"avg_offset_px":null,"mean_in_roi":null},"drift_checks_total":0,"drift_failures_total":0,"drift_recalibrations_total":0,"drift_checks_skipped":true,"camera_gate_failed":false,"camera_gate_timeout":false,"camera_gate_policy":null,"camera_gate_failure_reason":null,"regression_module":null,"chinrest_used":false,"chinrest_passed":false,"chinrest_failure_reason":null,"chinrest_metrics":null,"device_metrics":{"screen_w":1280,"screen_h":900,"window_w":1280,"window_h":900,"devicePixelRatio":1}}},{"rt":null,"stimulus":"<div class='feedback-container'><img src='stim/kamin/+.jpg'></div>","response":null,"trial_type":"html-keyboard-response","trial_index":61,"time_elapsed":94691,"internal_node_id":"0.0-2.0-7.0-2.14","chinrest_used":false,"chinrest_passed":false,"chinrest_failure_reason":null,"chinrest_metrics":null,"webgazer_enabled":false,"calib_passed":false,"calib_attempts":0,"camera_gate_failed":false,"camera_gate_timeout":false,"camera_gate_policy":null,"regression_module":null,"drift_checks":{"total":0,"failures":0,"recalibrations":0,"skipped":true},"calibration_report":{"attempts_total":0,"attempts":[],"final":{"calib_passed":false,"calib_strong_pass":false,"calib_terminal_fail":false,"avg_offset_px":null,"mean_in_roi":null},"drift_checks_total":0,"drift_failures_total":0,"drift_recalibrations_total":0,"drift_checks_skipped":true,"camera_gate_failed":false,"camera_gate_timeout":false,"camera_gate_policy":null,"camera_gate_failure_reason":null,"regression_module":null,"chinrest_used":false,"chinrest_passed":false,"chinrest_failure_reason":null,"chinrest_metrics":null,"device_metrics":{"screen_w":1280,"screen_h":900,"window_w":1280,"window_h":900,"devicePixelRatio":1}}},{"rt":null,"stimulus":"<div style=\"color:black; font-size:60px;\">+</div>","response":null,"trial_type":"html-keyboard-response","trial_index":62,"time_elapsed":95703,"internal_node_id":"0.0-2.0-7.0-0.15","chinrest_used":false,"chinrest_passed":false,"chinrest_failure_reason":null,"chinrest_metrics":null,"webgazer_enabled":false,"calib_passed":false,"calib_attempts":0,"camera_gate_failed":false,"camera_gate_timeout":false,"camera_gate_policy":null,"regression_module":null,"drift_checks":{"total":0,"failures":0,"recalibrations":0,"skipped":true},"calibration_report":{"attempts_total":0,"attempts":[],"final":{"calib_passed":false,"calib_strong_pass":false,"calib_terminal_fail":false,"avg_offset_px":null,"mean_in_roi":null},"drift_checks_total":0,"drift_failures_total":0,"drift_recalibrations_total":0,"drift_checks_skipped":true,"camera_gate_failed":false,"camera_gate_timeout":false,"camera_gate_policy":null,"camera_gate_failure_reason":null,"regression_module":null,"chinrest_used":false,"chinrest_passed":false,"chinrest_failure_reason":null,"chinrest_metrics":null,"device_metrics":{"screen_w":1280,"screen_h":900,"window_w":1280,"window_h":900,"devicePixelRatio":1}}},{"rt":null,"stimulus":"<img class='stimuli-allergy' src='stim/kamin/set1/s6.jpg'>","response":48,"test_part":"learning","reaction":"no-reaction","condition":"single-negative","trial_identity":"F-","correct_response":48,"incorrect_response":49,"stim_left":"in/set1/s6.jpg","stim_right":"","version":"kamin","trial_type":"html-keyboard-response","trial_index":63,"time_elapsed":98707,"internal_node_id":"0.0-2.0-7.0-1.15","PROLIFIC_PID":"test123","interview_date":"03/06/2026","handedness":"right","task_version":"kamin","accuracy":1,"confidence":3.7,"index":19,"chinrest_used":false,"chinrest_passed":false,"chinrest_failure_reason":null,"chinrest_metrics":null,"webgazer_enabled":false,"calib_passed":false,"calib_attempts":0,"camera_gate_failed":false,"camera_gate_timeout":false,"camera_gate_policy":null,"regression_module":null,"drift_checks":{"total":0,"failures":0,"recalibrations":0,"skipped":true},"calibration_report":{"attempts_total":0,"attempts":[],"final":{"calib_passed":false,"calib_strong_pass":false,"calib_terminal_fail":false,"avg_offset_px":null,"mean_in_roi":null},"drift_checks_total":0,"drift_failures_total":0,"drift_recalibrations_total":0,"drift_checks_skipped":true,"camera_gate_failed":false,"camera_gate_timeout":false,"camera_gate_policy":null,"camera_gate_failure_reason":null,"regression_module":null,"chinrest_used":false,"chinrest_passed":false,"chinrest_failure_reason":null,"chinrest_metrics":null,"device_metrics":{"screen_w":1280,"screen_h":900,"window_w":1280,"window_h":900,"devicePixelRatio":1}}},{"rt":null,"stimulus":"<div class='feedback-container'><img src='stim/kamin/-.jpg'></div>","response":null,"trial_type":"html-keyboard-response","trial_index":64,"time_elapsed":99716,"internal_node_id":"0.0-2.0-7.0-2.15","chinrest_used":false,"chinrest_passed":false,"chinrest_failure_reason":null,"chinrest_metrics":null,"webgazer_enabled":false,"calib_passed":false,"calib_attempts":0,"camera_gate_failed":false,"camera_gate_timeout":false,"camera_gate_policy":null,"regression_module":null,"drift_checks":{"total":0,"failures":0,"recalibrations":0,"skipped":true},"calibration_report":{"attempts_total":0,"attempts":[],"final":{"calib_passed":false,"calib_strong_pass":false,"calib_terminal_fail":false,"avg_offset_px":null,"mean_in_roi":null},"drift_checks_total":0,"drift_failures_total":0,"drift_recalibrations_total":0,"drift_checks_skipped":true,"camera_gate_failed":false,"camera_gate_timeout":false,"camera_gate_policy":null,"camera_gate_failure_reason":null,"regression_module":null,"chinrest_used":false,"chinrest_passed":false,"chinrest_failure_reason":null,"chinrest_metrics":null,"device_metrics":{"screen_w":1280,"screen_h":900,"window_w":1280,"window_h":900,"devicePixelRatio":1}}},{"rt":null,"stimulus":"<div style=\"color:black; font-size:60px;\">+</div>","response":null,"trial_type":"html-keyboard-response","trial_index":65,"time_elapsed":100723,"internal_node_id":"0.0-2.0-7.0-0.16","chinrest_used":false,"chinrest_passed":false,"chinrest_failure_reason":null,"chinrest_metrics":null,"webgazer_enabled":false,"calib_passed":false,"calib_attempts":0,"camera_gate_failed":false,"camera_gate_timeout":false,"camera_gate_policy":null,"regression_module":null,"drift_checks":{"total":0,"failures":0,"recalibrations":0,"skipped":true},"calibration_report":{"attempts_total":0,"attempts":[],"final":{"calib_passed":false,"calib_strong_pass":false,"calib_terminal_fail":false,"avg_offset_px":null,"mean_in_roi":null},"drift_checks_total":0,"drift_failures_total":0,"drift_recalibrations_total":0,"drift_checks_skipped":true,"camera_gate_failed":false,"camera_gate_timeout":false,"camera_gate_policy":null,"camera_gate_failure_reason":null,"regression_module":null,"chinrest_used":false,"chinrest_passed":false,"chinrest_failure_reason":null,"chinrest_metrics":null,"device_metrics":{"screen_w":1280,"screen_h":900,"window_w":1280,"window_h":900,"devicePixelRatio":1}}},{"rt":null,"stimulus":"<img class='stimuli-allergy' src='stim/kamin/set1/s10.jpg'>","response":48,"test_part":"learning","reaction":"allergy","condition":"single-positive","trial_identity":"I+","correct_response":49,"incorrect_response":48,"stim_left":"in/set1/s10.jpg","stim_right":"","version":"kamin","trial_type":"html-keyboard-response","trial_index":66,"time_elapsed":103730,"internal_node_id":"0.0-2.0-7.0-1.16","PROLIFIC_PID":"test123","interview_date":"03/06/2026","handedness":"right","task_version":"kamin","accuracy":0,"confidence":3.7,"index":20,"chinrest_used":false,"chinrest_passed":false,"chinrest_failure_reason":null,"chinrest_metrics":null,"webgazer_enabled":false,"calib_passed":false,"calib_attempts":0,"camera_gate_failed":false,"camera_gate_timeout":false,"camera_gate_policy":null,"regression_module":null,"drift_checks":{"total":0,"failures":0,"recalibrations":0,"skipped":true},"calibration_report":{"attempts_total":0,"attempts":[],"final":{"calib_passed":false,"calib_strong_pass":false,"calib_terminal_fail":false,"avg_offset_px":null,"mean_in_roi":null},"drift_checks_total":0,"drift_failures_total":0,"drift_recalibrations_total":0,"drift_checks_skipped":true,"camera_gate_failed":false,"camera_gate_timeout":false,"camera_gate_policy":null,"camera_gate_failure_reason":null,"regression_module":null,"chinrest_used":false,"chinrest_passed":false,"chinrest_failure_reason":null,"chinrest_metrics":null,"device_metrics":{"screen_w":1280,"screen_h":900,"window_w":1280,"window_h":900,"devicePixelRatio":1}}},{"rt":null,"stimulus":"<div class='feedback-container'><img src='stim/kamin/+.jpg'></div>","response":null,"trial_type":"html-keyboard-response","trial_index":67,"time_elapsed":104739,"internal_node_id":"0.0-2.0-7.0-2.16","chinrest_used":false,"chinrest_passed":false,"chinrest_failure_reason":null,"chinrest_metrics":null,"webgazer_enabled":false,"calib_passed":false,"calib_attempts":0,"camera_gate_failed":false,"camera_gate_timeout":false,"camera_gate_policy":null,"regression_module":null,"drift_checks":{"total":0,"failures":0,"recalibrations":0,"skipped":true},"calibration_report":{"attempts_total":0,"attempts":[],"final":{"calib_passed":false,"calib_strong_pass":false,"calib_terminal_fail":false,"avg_offset_px":null,"mean_in_roi":null},"drift_checks_total":0,"drift_failures_total":0,"drift_recalibrations_total":0,"drift_checks_skipped":true,"camera_gate_failed":false,"camera_gate_timeout":false,"camera_gate_policy":null,"camera_gate_failure_reason":null,"regression_module":null,"chinrest_used":false,"chinrest_passed":false,"chinrest_failure_reason":null,"chinrest_metrics":null,"device_metrics":{"screen_w":1280,"screen_h":900,"window_w":1280,"window_h":900,"devicePixelRatio":1}}},{"rt":null,"stimulus":"<div style=\"color:black; font-size:60px;\">+</div>","response":null,"trial_type":"html-keyboard-response","trial_index":68,"time_elapsed":105741,"internal_node_id":"0.0-2.0-7.0-0.17","chinrest_used":false,"chinrest_passed":false,"chinrest_failure_reason":null,"chinrest_metrics":null,"webgazer_enabled":false,"calib_passed":false,"calib_attempts":0,"camera_gate_failed":false,"camera_gate_timeout":false,"camera_gate_policy":null,"regression_module":null,"drift_checks":{"total":0,"failures":0,"recalibrations":0,"skipped":true},"calibration_report":{"attempts_total":0,"attempts":[],"final":{"calib_passed":false,"calib_strong_pass":false,"calib_terminal_fail":false,"avg_offset_px":null,"mean_in_roi":null},"drift_checks_total":0,"drift_failures_total":0,"drift_recalibrations_total":0,"drift_checks_skipped":true,"camera_gate_failed":false,"camera_gate_timeout":false,"camera_gate_policy":null,"camera_gate_failure_reason":null,"regression_module":null,"chinrest_used":false,"chinrest_passed":false,"chinrest_failure_reason":null,"chinrest_metrics":null,"device_metrics":{"screen_w":1280,"screen_h":900,"window_w":1280,"window_h":900,"devicePixelRatio":1}}},{"rt":null,"stimulus":"<img class='stimuli-allergy' src='stim/kamin/set1/s5.jpg'>","response":49,"test_part":"learning","reaction":"no-reaction","condition":"single-negative","trial_identity":"C1-","correct_response":48,"incorrect_response":49,"stim_left":"in/set1/s5.jpg","stim_right":"","version":"kamin","trial_type":"html-keyboard-response","trial_index":69,"time_elapsed":108754,"internal_node_id":"0.0-2.0-7.0-1.17","PROLIFIC_PID":"test123","interview_date":"03/06/2026","handedness":"right","task_version":"kamin","accuracy":0,"confidence":3.7,"index":21,"chinrest_used":false,"chinrest_passed":false,"chinrest_failure_reason":null,"chinrest_metrics":null,"webgazer_enabled":false,"calib_passed":false,"calib_attempts":0,"camera_gate_failed":false,"camera_gate_timeout":false,"camera_gate_policy":null,"regression_module":null,"drift_checks":{"total":0,"failures":0,"recalibrations":0,"skipped":true},"calibration_report":{"attempts_total":0,"attempts":[],"final":{"calib_passed":false,"calib_strong_pass":false,"calib_terminal_fail":false,"avg_offset_px":null,"mean_in_roi":null},"drift_checks_total":0,"drift_failures_total":0,"drift_recalibrations_total":0,"drift_checks_skipped":true,"camera_gate_failed":false,"camera_gate_timeout":false,"camera_gate_policy":null,"camera_gate_failure_reason":null,"regression_module":null,"chinrest_used":false,"chinrest_passed":false,"chinrest_failure_reason":null,"chinrest_metrics":null,"device_metrics":{"screen_w":1280,"screen_h":900,"window_w":1280,"window_h":900,"devicePixelRatio":1}}},{"rt":null,"stimulus":"<div class='feedback-container'><img src='stim/kamin/-.jpg'></div>","response":null,"trial_type":"html-keyboard-response","trial_index":70,"time_elapsed":109756,"internal_node_id":"0.0-2.0-7.0-2.17","chinrest_used":false,"chinrest_passed":false,"chinrest_failure_reason":null,"chinrest_metrics":null,"webgazer_enabled":false,"calib_passed":false,"calib_attempts":0,"camera_gate_failed":false,"camera_gate_timeout":false,"camera_gate_policy":null,"regression_module":null,"drift_checks":{"total":0,"failures":0,"recalibrations":0,"skipped":true},"calibration_report":{"attempts_total":0,"attempts":[],"final":{"calib_passed":false,"calib_strong_pass":false,"calib_terminal_fail":false,"avg_offset_px":null,"mean_in_roi":null},"drift_checks_total":0,"drift_failures_total":0,"drift_recalibrations_total":0,"drift_checks_skipped":true,"camera_gate_failed":false,"camera_gate_timeout":false,"camera_gate_policy":null,"camera_gate_failure_reason":null,"regression_module":null,"chinrest_used":false,"chinrest_passed":false,"chinrest_failure_reason":null,"chinrest_metrics":null,"device_metrics":{"screen_w":1280,"screen_h":900,"window_w":1280,"window_h":900,"devicePixelRatio":1}}},{"rt":null,"stimulus":"<div style=\"color:black; font-size:60px;\">+</div>","response":null,"trial_type":"html-keyboard-response","trial_index":71,"time_elapsed":110768,"internal_node_id":"0.0-2.0-7.0-0.18","chinrest_used":false,"chinrest_passed":false,"chinrest_failure_reason":null,"chinrest_metrics":null,"webgazer_enabled":false,"calib_passed":false,"calib_attempts":0,"camera_gate_failed":false,"camera_gate_timeout":false,"camera_gate_policy":null,"regression_module":null,"drift_checks":{"total":0,"failures":0,"recalibrations":0,"skipped":true},"calibration_report":{"attempts_total":0,"attempts":[],"final":{"calib_passed":false,"calib_strong_pass":false,"calib_terminal_fail":false,"avg_offset_px":null,"mean_in_roi":null},"drift_checks_total":0,"drift_failures_total":0,"drift_recalibrations_total":0,"drift_checks_skipped":true,"camera_gate_failed":false,"camera_gate_timeout":false,"camera_gate_policy":null,"camera_gate_failure_reason":null,"regression_module":null,"chinrest_used":false,"chinrest_passed":false,"chinrest_failure_reason":null,"chinrest_metrics":null,"device_metrics":{"screen_w":1280,"screen_h":900,"window_w":1280,"window_h":900,"devicePixelRatio":1}}},{"rt":null,"stimulus":"<img class='stimuli-allergy' src='stim/kamin/set1/s1.jpg'>","response":48,"test_part":"learning","reaction":"allergy","condition":"single-positive","trial_identity":"A2+","correct_response":49,"incorrect_response":48,"stim_left":"in/set1/s1.jpg","stim_right":"","version":"kamin","trial_type":"html-keyboard-response","trial_index":72,"time_elapsed":113770,"internal_node_id":"0.0-2.0-7.0-1.18","PROLIFIC_PID":"test123","interview_date":"03/06/2026","handedness":"right","task_version":"kamin","accuracy":0,"confidence":3.7,"index":22,"chinrest_used":false,"chinrest_passed":false,"chinrest_failure_reason":null,"chinrest_metrics":null,"webgazer_enabled":false,"calib_passed":false,"calib_attempts":0,"camera_gate_failed":false,"camera_gate_timeout":false,"camera_gate_policy":null,"regression_module":null,"drift_checks":{"total":0,"failures":0,"recalibrations":0,"skipped":true},"calibration_report":{"attempts_total":0,"attempts":[],"final":{"calib_passed":false,"calib_strong_pass":false,"calib_terminal_fail":false,"avg_offset_px":null,"mean_in_roi":null},"drift_checks_total":0,"drift_failures_total":0,"drift_recalibrations_total":0,"drift_checks_skipped":true,"camera_gate_failed":false,"camera_gate_timeout":false,"camera_gate_policy":null,"camera_gate_failure_reason":null,"regression_module":null,"chinrest_used":false,"chinrest_passed":false,"chinrest_failure_reason":null,"chinrest_metrics":null,"device_metrics":{"screen_w":1280,"screen_h":900,"window_w":1280,"window_h":900,"devicePixelRatio":1}}},{"rt":null,"stimulus":"<div class='feedback-container'><img src='stim/kamin/+.jpg'></div>","response":null,"trial_type":"html-keyboard-response","trial_index":73,"time_elapsed":114773,"internal_node_id":"0.0-2.0-7.0-2.18","chinrest_used":false,"chinrest_passed":false,"chinrest_failure_reason":null,"chinrest_metrics":null,"webgazer_enabled":false,"calib_passed":false,"calib_attempts":0,"camera_gate_failed":false,"camera_gate_timeout":false,"camera_gate_policy":null,"regression_module":null,"drift_checks":{"total":0,"failures":0,"recalibrations":0,"skipped":true},"calibration_report":{"attempts_total":0,"attempts":[],"final":{"calib_passed":false,"calib_strong_pass":false,"calib_terminal_fail":false,"avg_offset_px":null,"mean_in_roi":null},"drift_checks_total":0,"drift_failures_total":0,"drift_recalibrations_total":0,"drift_checks_skipped":true,"camera_gate_failed":false,"camera_gate_timeout":false,"camera_gate_policy":null,"camera_gate_failure_reason":null,"regression_module":null,"chinrest_used":false,"chinrest_passed":false,"chinrest_failure_reason":null,"chinrest_metrics":null,"device_metrics":{"screen_w":1280,"screen_h":900,"window_w":1280,"window_h":900,"devicePixelRatio":1}}},{"rt":null,"stimulus":"<div style=\"color:black; font-size:60px;\">+</div>","response":null,"trial_type":"html-keyboard-response","trial_index":74,"time_elapsed":115781,"internal_node_id":"0.0-2.0-7.0-0.19","chinrest_used":false,"chinrest_passed":false,"chinrest_failure_reason":null,"chinrest_metrics":null,"webgazer_enabled":false,"calib_passed":false,"calib_attempts":0,"camera_gate_failed":false,"camera_gate_timeout":false,"camera_gate_policy":null,"regression_module":null,"drift_checks":{"total":0,"failures":0,"recalibrations":0,"skipped":true},"calibration_report":{"attempts_total":0,"attempts":[],"final":{"calib_passed":false,"calib_strong_pass":false,"calib_terminal_fail":false,"avg_offset_px":null,"mean_in_roi":null},"drift_checks_total":0,"drift_failures_total":0,"drift_recalibrations_total":0,"drift_checks_skipped":true,"camera_gate_failed":false,"camera_gate_timeout":false,"camera_gate_policy":null,"camera_gate_failure_reason":null,"regression_module":null,"chinrest_used":false,"chinrest_passed":false,"chinrest_failure_reason":null,"chinrest_metrics":null,"device_metrics":{"screen_w":1280,"screen_h":900,"window_w":1280,"window_h":900,"devicePixelRatio":1}}},{"rt":null,"stimulus":"<img class='stimuli-allergy' src='stim/kamin/set1/s2.jpg'>","response":49,"test_part":"learning","reaction":"no-reaction","condition":"single-negative","trial_identity":"J-","correct_response":48,"incorrect_response":49,"stim_left":"in/set1/s2.jpg","stim_right":"","version":"kamin","trial_type":"html-keyboard-response","trial_index":75,"time_elapsed":118784,"internal_node_id":"0.0-2.0-7.0-1.19","PROLIFIC_PID":"test123","interview_date":"03/06/2026","handedness":"right","task_version":"kamin","accuracy":0,"confidence":3.7,"index":23,"chinrest_used":false,"chinrest_passed":false,"chinrest_failure_reason":null,"chinrest_metrics":null,"webgazer_enabled":false,"calib_passed":false,"calib_attempts":0,"camera_gate_failed":false,"camera_gate_timeout":false,"camera_gate_policy":null,"regression_module":null,"drift_checks":{"total":0,"failures":0,"recalibrations":0,"skipped":true},"calibration_report":{"attempts_total":0,"attempts":[],"final":{"calib_passed":false,"calib_strong_pass":false,"calib_terminal_fail