"rt","stimulus","key_press","trial_type","trial_index","time_elapsed","internal_node_id","test_part","correct_response","accuracy","reaction","role"
"567.2100000083447","<p style=""color:black;"">Welcome to the experiment! Press any key to begin.</p>","32","html-keyboard-response","0","579","0.0-0.0","","","","",""
"148.78499999758787","<p style=""color:black;"">In this experiment, you are asked to imagine that you are an allergist (someone who tries to discover the cause of allergic reactions in people).</p><p style=""color:black;"">You have been presented with a new patient who suffers from allergic reactions following some meals, but not others.</p> <p style=""color:black;"">You arrange for them to eat a number of different meals, containing one or two foods, and observe whether or not they have an allergic reaction.</p><br><p style=""color:black;"">Press the space bar to continue.</p>","32","html-keyboard-response","1","730","0.0-1.0","","","","",""
"1206.3149999885354","<p style=""color:black;"">During the experiment, you will be shown pictures of the foods given to your patient for each meal.</p><p style=""color:black;"">You will then be shown whether or not they suffered an allergic reaction after eating the meal.</p><p style=""color:black;"">When you see each meal, please predict whether or not you believe they will suffer an allergic reaction after eating the meal.</p><br><p style=""color:black;"">To predict that a particular meal <strong><u>will not</strong></u> cause an allergy please press the <q><strong>0</strong></q> key on the keyboard.</p><p style=""color:black;"">To predict that a meal <b><u>will cause</b></u> an allergic reaction please press the <q><strong>1</strong></q> key on the keyboard.</p><br><p style=""color:black;"">Press either of the response keys to continue.</p>","48","html-keyboard-response","2","1937","0.0-2.0","","","","",""
"974.2700000060722","<p style=""color:black;"">Obviously you will have to guess at first.</p><p style=""color:black;"">But hopefully, as you see more meals, you will learn which foods tend to make your patient have an allergic reaction.</p><br><p style=""color:black;"">Food <strong><u>does not</strong></u> cause an allergy &#8594 <q><strong>0</strong></q> key </p><p style=""color:black;"">Food <strong><u>causes</strong></u> an allergy &#8594 <q><strong>1</strong></q> key</p><br><p style=""color:black;"">Try to make your prediction <b><u>before</b></u> the meal leaves the screen.</p><br><p style=""color:black;"">Press the space bar to begin the practice trials.</p>","32","html-keyboard-response","3","2912","0.0-3.0","","","","",""
"null","<div style=""color:black; font-size:60px;""></div>","null","html-keyboard-response","4","3916","0.0-4.0-0.0","fixation","","","",""
"null","<img src='stimuli/s4.jpg'><img src=''>","null","html-keyboard-response","5","6919","0.0-4.0-1.0","practice","48","0","",""
"null","<img src=stimuli/-.jpg ></img>","null","html-keyboard-response","6","7921","0.0-4.0-2.0","feedback","","","",""
"null","<div style=""color:black; font-size:60px;""></div>","null","html-keyboard-response","7","9925","0.0-4.0-0.1","fixation","","","",""
"593.30000000773","<img src='stimuli/s3.jpg'><img src=''>","49","html-keyboard-response","8","10520","0.0-4.0-1.1","practice","48","0","",""
"null","<img src=stimuli/-.jpg ></img>","null","html-keyboard-response","9","11523","0.0-4.0-2.1","feedback","","","",""
"null","<div style=""color:black; font-size:60px;""></div>","null","html-keyboard-response","10","13530","0.0-4.0-0.2","fixation","","","",""
"1214.6400000201538","<img src='stimuli/s6.jpg'><img src=''>","49","html-keyboard-response","11","14746","0.0-4.0-1.2","practice","49","1","",""
"null","<img src=stimuli/+.jpg ></img>","null","html-keyboard-response","12","15751","0.0-4.0-2.2","feedback","","","",""
"702.6199999963865","<p style=""color:black;"">Let us begin! Press the space bar when you are ready to start the experiment.</p><p style=""color:black;"">It should last about 20 minutes with breaks in-between.</p><br><p style=""color:black;"">Good Luck!</p>","32","html-keyboard-response","13","17458","0.0-5.0","","","","",""
"null","<div style=""color:black; font-size:60px;""></div>","null","html-keyboard-response","14","18459","0.0-6.0-0.0","fixation","","","",""
"602.4599999946076","<img src='stimuli/s12.jpg'><img src=''>","48","html-keyboard-response","15","19063","0.0-6.0-1.0","learning","49","0","allergy","singlePositive"
"null","<img src=stimuli/+.jpg ></img>","null","html-keyboard-response","16","20066","0.0-6.0-2.0","feedback","","","",""
"null","<div style=""color:black; font-size:60px;""></div>","null","html-keyboard-response","17","22069","0.0-6.0-0.1","fixation","","","",""
"null","<img src='stimuli/s9.jpg'><img src=''>","null","html-keyboard-response","18","25070","0.0-6.0-1.1","learning","48","0","noReaction","singleNegative"
"null","<img src=stimuli/-.jpg ></img>","null","html-keyboard-response","19","26075","0.0-6.0-2.1","feedback","","","",""
"null","<div style=""color:black; font-size:60px;""></div>","null","html-keyboard-response","20","28080","0.0-6.0-0.2","fixation","","","",""
"null","<img src='stimuli/s15.jpg'><img src=''>","null","html-keyboard-response","21","31084","0.0-6.0-1.2","learning","48","0","noReaction","singleNegative"
"null","<img src=stimuli/-.jpg ></img>","null","html-keyboard-response","22","32089","0.0-6.0-2.2","feedback","","","",""
"null","<div style=""color:black; font-size:60px;""></div>","null","html-keyboard-response","23","34095","0.0-6.0-0.3","fixation","","","",""
"null","<img src='stimuli/s7.jpg'><img src=''>","null","html-keyboard-response","24","37099","0.0-6.0-1.3","learning","48","0","noReaction","singleNegative"
"null","<img src=stimuli/-.jpg ></img>","null","html-keyboard-response","25","38104","0.0-6.0-2.3","feedback","","","",""
"null","<div style=""color:black; font-size:60px;""></div>","null","html-keyboard-response","26","40107","0.0-6.0-0.4","fixation","","","",""
"null","<img src='stimuli/s13.jpg'><img src=''>","null","html-keyboard-response","27","43110","0.0-6.0-1.4","learning","49","0","allergy","singlePositive"
"null","<img src=stimuli/+.jpg ></img>","null","html-keyboard-response","28","44115","0.0-6.0-2.4","feedback","","","",""
"null","<div style=""color:black; font-size:60px;""></div>","null","html-keyboard-response","29","46124","0.0-6.0-0.5","fixation","","","",""
"null","<img src='stimuli/s8.jpg'><img src=''>","null","html-keyboard-response","30","49126","0.0-6.0-1.5","learning","48","0","noReaction","singleNegative"
"null","<img src=stimuli/-.jpg ></img>","null","html-keyboard-response","31","50131","0.0-6.0-2.5","feedback","","","",""
"null","<div style=""color:black; font-size:60px;""></div>","null","html-keyboard-response","32","52135","0.0-6.0-0.6","fixation","","","",""
"null","<img src='stimuli/s2.jpg'><img src=''>","null","html-keyboard-response","33","55140","0.0-6.0-1.6","learning","49","0","allergy","singlePositive"
"null","<img src=stimuli/+.jpg ></img>","null","html-keyboard-response","34","56145","0.0-6.0-2.6","feedback","","","",""
"null","<div style=""color:black; font-size:60px;""></div>","null","html-keyboard-response","35","58152","0.0-6.0-0.7","fixation","","","",""
"null","<img src='stimuli/s2.jpg'><img src=''>","null","html-keyboard-response","36","61157","0.0-6.0-1.7","learning","49","0","allergy","singlePositive"
"null","<img src=stimuli/+.jpg ></img>","null","html-keyboard-response","37","62162","0.0-6.0-2.7","feedback","","","",""
"null","<div style=""color:black; font-size:60px;""></div>","null","html-keyboard-response","38","64166","0.0-6.0-0.8","fixation","","","",""
"null","<img src='stimuli/s15.jpg'><img src=''>","null","html-keyboard-response","39","67169","0.0-6.0-1.8","learning","48","0","noReaction","singleNegative"
"null","<img src=stimuli/-.jpg ></img>","null","html-keyboard-response","40","68173","0.0-6.0-2.8","feedback","","","",""
"null","<div style=""color:black; font-size:60px;""></div>","null","html-keyboard-response","41","70183","0.0-6.0-0.9","fixation","","","",""
"null","<img src='stimuli/s7.jpg'><img src=''>","null","html-keyboard-response","42","73186","0.0-6.0-1.9","learning","48","0","noReaction","singleNegative"
"null","<img src=stimuli/-.jpg ></img>","null","html-keyboard-response","43","74191","0.0-6.0-2.9","feedback","","","",""
"null","<div style=""color:black; font-size:60px;""></div>","null","html-keyboard-response","44","76194","0.0-6.0-0.10","fixation","","","",""
"null","<img src='stimuli/s12.jpg'><img src=''>","null","html-keyboard-response","45","79201","0.0-6.0-1.10","learning","49","0","allergy","singlePositive"
"null","<img src=stimuli/+.jpg ></img>","null","html-keyboard-response","46","80206","0.0-6.0-2.10","feedback","","","",""
"null","<div style=""color:black; font-size:60px;""></div>","null","html-keyboard-response","47","82212","0.0-6.0-0.11","fixation","","","",""
"null","<img src='stimuli/s8.jpg'><img src=''>","null","html-keyboard-response","48","85214","0.0-6.0-1.11","learning","48","0","noReaction","singleNegative"
"null","<img src=stimuli/-.jpg ></img>","null","html-keyboard-response","49","86219","0.0-6.0-2.11","feedback","","","",""
"null","<div style=""color:black; font-size:60px;""></div>","null","html-keyboard-response","50","88224","0.0-6.0-0.12","fixation","","","",""
"null","<img src='stimuli/s9.jpg'><img src=''>","null","html-keyboard-response","51","91230","0.0-6.0-1.12","learning","48","0","noReaction","singleNegative"
"null","<img src=stimuli/-.jpg ></img>","null","html-keyboard-response","52","92231","0.0-6.0-2.12","feedback","","","",""
"null","<div style=""color:black; font-size:60px;""></div>","null","html-keyboard-response","53","94233","0.0-6.0-0.13","fixation","","","",""
"null","<img src='stimuli/s13.jpg'><img src=''>","null","html-keyboard-response","54","97236","0.0-6.0-1.13","learning","49","0","allergy","singlePositive"
"null","<img src=stimuli/+.jpg ></img>","null","html-keyboard-response","55","98240","0.0-6.0-2.13","feedback","","","",""
"null","<div style=""color:black; font-size:60px;""></div>","null","html-keyboard-response","56","100245","0.0-6.0-0.14","fixation","","","",""
"null","<img src='stimuli/s8.jpg'><img src=''>","null","html-keyboard-response","57","103252","0.0-6.0-1.14","learning","48","0","noReaction","singleNegative"
"null","<img src=stimuli/-.jpg ></img>","null","html-keyboard-response","58","104257","0.0-6.0-2.14","feedback","","","",""
"null","<div style=""color:black; font-size:60px;""></div>","null","html-keyboard-response","59","106263","0.0-6.0-0.15","fixation","","","",""
"null","<img src='stimuli/s9.jpg'><img src=''>","null","html-keyboard-response","60","109271","0.0-6.0-1.15","learning","48","0","noReaction","singleNegative"
"null","<img src=stimuli/-.jpg ></img>","null","html-keyboard-response","61","110275","0.0-6.0-2.15","feedback","","","",""
"null","<div style=""color:black; font-size:60px;""></div>","null","html-keyboard-response","62","112280","0.0-6.0-0.16","fixation","","","",""
"null","<img src='stimuli/s12.jpg'><img src=''>","null","html-keyboard-response","63","115283","0.0-6.0-1.16","learning","49","0","allergy","singlePositive"
"null","<img src=stimuli/+.jpg ></img>","null","html-keyboard-response","64","116288","0.0-6.0-2.16","feedback","","","",""
"null","<div style=""color:black; font-size:60px;""></div>","null","html-keyboard-response","65","118295","0.0-6.0-0.17","fixation","","","",""
"null","<img src='stimuli/s13.jpg'><img src=''>","null","html-keyboard-response","66","121297","0.0-6.0-1.17","learning","49","0","allergy","singlePositive"
"null","<img src=stimuli/+.jpg ></img>","null","html-keyboard-response","67","122301","0.0-6.0-2.17","feedback","","","",""
"null","<div style=""color:black; font-size:60px;""></div>","null","html-keyboard-response","68","124308","0.0-6.0-0.18","fixation","","","",""
"null","<img src='stimuli/s2.jpg'><img src=''>","null","html-keyboard-response","69","127316","0.0-6.0-1.18","learning","49","0","allergy","singlePositive"
"null","<img src=stimuli/+.jpg ></img>","null","html-keyboard-response","70","128321","0.0-6.0-2.18","feedback","","","",""
"null","<div style=""color:black; font-size:60px;""></div>","null","html-keyboard-response","71","130326","0.0-6.0-0.19","fixation","","","",""
"null","<img src='stimuli/s7.jpg'><img src=''>","null","html-keyboard-response","72","133329","0.0-6.0-1.19","learning","48","0","noReaction","singleNegative"
"null","<img src=stimuli/-.jpg ></img>","null","html-keyboard-response","73","134332","0.0-6.0-2.19","feedback","","","",""
"null","<div style=""color:black; font-size:60px;""></div>","null","html-keyboard-response","74","136336","0.0-6.0-0.20","fixation","","","",""
"null","<img src='stimuli/s15.jpg'><img src=''>","null","html-keyboard-response","75","139339","0.0-6.0-1.20","learning","48","0","noReaction","singleNegative"
"null","<img src=stimuli/-.jpg ></img>","null","html-keyboard-response","76","140344","0.0-6.0-2.20","feedback","","","",""
"null","<div style=""color:black; font-size:60px;""></div>","null","html-keyboard-response","77","142352","0.0-6.0-0.21","fixation","","","",""
"null","<img src='stimuli/s9.jpg'><img src=''>","null","html-keyboard-response","78","145356","0.0-6.0-1.21","learning","48","0","noReaction","singleNegative"
"null","<img src=stimuli/-.jpg ></img>","null","html-keyboard-response","79","146361","0.0-6.0-2.21","feedback","","","",""
"null","<div style=""color:black; font-size:60px;""></div>","null","html-keyboard-response","80","148366","0.0-6.0-0.22","fixation","","","",""
"null","<img src='stimuli/s7.jpg'><img src=''>","null","html-keyboard-response","81","151369","0.0-6.0-1.22","learning","48","0","noReaction","singleNegative"
"null","<img src=stimuli/-.jpg ></img>","null","html-keyboard-response","82","152373","0.0-6.0-2.22","feedback","","","",""
"null","<div style=""color:black; font-size:60px;""></div>","null","html-keyboard-response","83","154378","0.0-6.0-0.23","fixation","","","",""
"null","<img src='stimuli/s2.jpg'><img src=''>","null","html-keyboard-response","84","157382","0.0-6.0-1.23","learning","49","0","allergy","singlePositive"
"null","<img src=stimuli/+.jpg ></img>","null","html-keyboard-response","85","158387","0.0-6.0-2.23","feedback","","","",""
"null","<div style=""color:black; font-size:60px;""></div>","null","html-keyboard-response","86","160397","0.0-6.0-0.24","fixation","","","",""
"null","<img src='stimuli/s15.jpg'><img src=''>","null","html-keyboard-response","87","163401","0.0-6.0-1.24","learning","48","0","noReaction","singleNegative"
"null","<img src=stimuli/-.jpg ></img>","null","html-keyboard-response","88","164405","0.0-6.0-2.24","feedback","","","",""
"null","<div style=""color:black; font-size:60px;""></div>","null","html-keyboard-response","89","166410","0.0-6.0-0.25","fixation","","","",""
"null","<img src='stimuli/s8.jpg'><img src=''>","null","html-keyboard-response","90","169414","0.0-6.0-1.25","learning","48","0","noReaction","singleNegative"
"null","<img src=stimuli/-.jpg ></img>","null","html-keyboard-response","91","170419","0.0-6.0-2.25","feedback","","","",""
"null","<div style=""color:black; font-size:60px;""></div>","null","html-keyboard-response","92","172425","0.0-6.0-0.26","fixation","","","",""
"null","<img src='stimuli/s12.jpg'><img src=''>","null","html-keyboard-response","93","175431","0.0-6.0-1.26","learning","49","0","allergy","singlePositive"
"null","<img src=stimuli/+.jpg ></img>","null","html-keyboard-response","94","176436","0.0-6.0-2.26","feedback","","","",""
"null","<div style=""color:black; font-size:60px;""></div>","null","html-keyboard-response","95","178442","0.0-6.0-0.27","fixation","","","",""
"null","<img src='stimuli/s13.jpg'><img src=''>","null","html-keyboard-response","96","181448","0.0-6.0-1.27","learning","49","0","allergy","singlePositive"
"null","<img src=stimuli/+.jpg ></img>","null","html-keyboard-response","97","182453","0.0-6.0-2.27","feedback","","","",""
"null","<div style=""color:black; font-size:60px;""></div>","null","html-keyboard-response","98","184459","0.0-6.0-0.28","fixation","","","",""
"null","<img src='stimuli/s8.jpg'><img src=''>","null","html-keyboard-response","99","187464","0.0-6.0-1.28","learning","48","0","noReaction","singleNegative"
"null","<img src=stimuli/-.jpg ></img>","null","html-keyboard-response","100","188468","0.0-6.0-2.28","feedback","","","",""
"null","<div style=""color:black; font-size:60px;""></div>","null","html-keyboard-response","101","190476","0.0-6.0-0.29","fixation","","","",""
"null","<img src='stimuli/s9.jpg'><img src=''>","null","html-keyboard-response","102","193482","0.0-6.0-1.29","learning","48","0","noReaction","singleNegative"
"null","<img src=stimuli/-.jpg ></img>","null","html-keyboard-response","103","194487","0.0-6.0-2.29","feedback","","","",""
"null","<div style=""color:black; font-size:60px;""></div>","null","html-keyboard-response","104","196492","0.0-6.0-0.30","fixation","","","",""
"null","<img src='stimuli/s12.jpg'><img src=''>","null","html-keyboard-response","105","199496","0.0-6.0-1.30","learning","49","0","allergy","singlePositive"
"null","<img src=stimuli/+.jpg ></img>","null","html-keyboard-response","106","200497","0.0-6.0-2.30","feedback","","","",""
"null","<div style=""color:black; font-size:60px;""></div>","null","html-keyboard-response","107","202503","0.0-6.0-0.31","fixation","","","",""
"null","<img src='stimuli/s15.jpg'><img src=''>","null","html-keyboard-response","108","205506","0.0-6.0-1.31","learning","48","0","noReaction","singleNegative"
"null","<img src=stimuli/-.jpg ></img>","null","html-keyboard-response","109","206507","0.0-6.0-2.31","feedback","","","",""
"null","<div style=""color:black; font-size:60px;""></div>","null","html-keyboard-response","110","208513","0.0-6.0-0.32","fixation","","","",""
"null","<img src='stimuli/s13.jpg'><img src=''>","null","html-keyboard-response","111","211519","0.0-6.0-1.32","learning","49","0","allergy","singlePositive"
"null","<img src=stimuli/+.jpg ></img>","null","html-keyboard-response","112","212521","0.0-6.0-2.32","feedback","","","",""
"null","<div style=""color:black; font-size:60px;""></div>","null","html-keyboard-response","113","214527","0.0-6.0-0.33","fixation","","","",""
"null","<img src='stimuli/s2.jpg'><img src=''>","null","html-keyboard-response","114","217532","0.0-6.0-1.33","learning","49","0","allergy","singlePositive"
"null","<img src=stimuli/+.jpg ></img>","null","html-keyboard-response","115","218535","0.0-6.0-2.33","feedback","","","",""
"null","<div style=""color:black; font-size:60px;""></div>","null","html-keyboard-response","116","220540","0.0-6.0-0.34","fixation","","","",""
"null","<img src='stimuli/s7.jpg'><img src=''>","null","html-keyboard-response","117","223545","0.0-6.0-1.34","learning","48","0","noReaction","singleNegative"
"null","<img src=stimuli/-.jpg ></img>","null","html-keyboard-response","118","224546","0.0-6.0-2.34","feedback","","","",""
"null","<div style=""color:black; font-size:60px;""></div>","null","html-keyboard-response","119","226549","0.0-6.0-0.35","fixation","","","",""
"null","<img src='stimuli/s9.jpg'><img src=''>","null","html-keyboard-response","120","229552","0.0-6.0-1.35","learning","48","0","noReaction","singleNegative"
"null","<img src=stimuli/-.jpg ></img>","null","html-keyboard-response","121","230553","0.0-6.0-2.35","feedback","","","",""
"null","<div style=""color:black; font-size:60px;""></div>","null","html-keyboard-response","122","232559","0.0-6.0-0.36","fixation","","","",""
"null","<img src='stimuli/s15.jpg'><img src=''>","null","html-keyboard-response","123","235563","0.0-6.0-1.36","learning","48","0","noReaction","singleNegative"
"null","<img src=stimuli/-.jpg ></img>","null","html-keyboard-response","124","236566","0.0-6.0-2.36","feedback","","","",""
"null","<div style=""color:black; font-size:60px;""></div>","null","html-keyboard-response","125","238570","0.0-6.0-0.37","fixation","","","",""
"null","<img src='stimuli/s12.jpg'><img src=''>","null","html-keyboard-response","126","241577","0.0-6.0-1.37","learning","49","0","allergy","singlePositive"
"null","<img src=stimuli/+.jpg ></img>","null","html-keyboard-response","127","242581","0.0-6.0-2.37","feedback","","","",""
"null","<div style=""color:black; font-size:60px;""></div>","null","html-keyboard-response","128","244589","0.0-6.0-0.38","fixation","","","",""
"null","<img src='stimuli/s7.jpg'><img src=''>","null","html-keyboard-response","129","247595","0.0-6.0-1.38","learning","48","0","noReaction","singleNegative"
"null","<img src=stimuli/-.jpg ></img>","null","html-keyboard-response","130","248600","0.0-6.0-2.38","feedback","","","",""
"null","<div style=""color:black; font-size:60px;""></div>","null","html-keyboard-response","131","250608","0.0-6.0-0.39","fixation","","","",""
"null","<img src='stimuli/s8.jpg'><img src=''>","null","html-keyboard-response","132","253612","0.0-6.0-1.39","learning","48","0","noReaction","singleNegative"
"null","<img src=stimuli/-.jpg ></img>","null","html-keyboard-response","133","254617","0.0-6.0-2.39","feedback","","","",""
"null","<div style=""color:black; font-size:60px;""></div>","null","html-keyboard-response","134","256618","0.0-6.0-0.40","fixation","","","",""
"null","<img src='stimuli/s2.jpg'><img src=''>","null","html-keyboard-response","135","259622","0.0-6.0-1.40","learning","49","0","allergy","singlePositive"
"null","<img src=stimuli/+.jpg ></img>","null","html-keyboard-response","136","260623","0.0-6.0-2.40","feedback","","","",""
"null","<div style=""color:black; font-size:60px;""></div>","null","html-keyboard-response","137","262627","0.0-6.0-0.41","fixation","","","",""
"null","<img src='stimuli/s13.jpg'><img src=''>","null","html-keyboard-response","138","265628","0.0-6.0-1.41","learning","49","0","allergy","singlePositive"
"null","<img src=stimuli/+.jpg ></img>","null","html-keyboard-response","139","266633","0.0-6.0-2.41","feedback","","","",""
"null","<div style=""color:black; font-size:60px;""></div>","null","html-keyboard-response","140","268640","0.0-6.0-0.42","fixation","","","",""
"null","<img src='stimuli/s8.jpg'><img src=''>","null","html-keyboard-response","141","271646","0.0-6.0-1.42","learning","48","0","noReaction","singleNegative"
"null","<img src=stimuli/-.jpg ></img>","null","html-keyboard-response","142","272651","0.0-6.0-2.42","feedback","","","",""
"null","<div style=""color:black; font-size:60px;""></div>","null","html-keyboard-response","143","274658","0.0-6.0-0.43","fixation","","","",""
"null","<img src='stimuli/s7.jpg'><img src=''>","null","html-keyboard-response","144","277663","0.0-6.0-1.43","learning","48","0","noReaction","singleNegative"
"null","<img src=stimuli/-.jpg ></img>","null","html-keyboard-response","145","278668","0.0-6.0-2.43","feedback","","","",""
"null","<div style=""color:black; font-size:60px;""></div>","null","html-keyboard-response","146","280674","0.0-6.0-0.44","fixation","","","",""
"null","<img src='stimuli/s12.jpg'><img src=''>","null","html-keyboard-response","147","283676","0.0-6.0-1.44","learning","49","0","allergy","singlePositive"
"null","<img src=stimuli/+.jpg ></img>","null","html-keyboard-response","148","284681","0.0-6.0-2.44","feedback","","","",""
"null","<div style=""color:black; font-size:60px;""></div>","null","html-keyboard-response","149","286687","0.0-6.0-0.45","fixation","","","",""
"null","<img src='stimuli/s2.jpg'><img src=''>","null","html-keyboard-response","150","289692","0.0-6.0-1.45","learning","49","0","allergy","singlePositive"
"null","<img src=stimuli/+.jpg ></img>","null","html-keyboard-response","151","290697","0.0-6.0-2.45","feedback","","","",""
"null","<div style=""color:black; font-size:60px;""></div>","null","html-keyboard-response","152","292706","0.0-6.0-0.46","fixation","","","",""
"null","<img src='stimuli/s15.jpg'><img src=''>","null","html-keyboard-response","153","295707","0.0-6.0-1.46","learning","48","0","noReaction","singleNegative"
"null","<img src=stimuli/-.jpg ></img>","null","html-keyboard-response","154","296712","0.0-6.0-2.46","feedback","","","",""
"null","<div style=""color:black; font-size:60px;""></div>","null","html-keyboard-response","155","298722","0.0-6.0-0.47","fixation","","","",""
"null","<img src='stimuli/s9.jpg'><img src=''>","null","html-keyboard-response","156","301724","0.0-6.0-1.47","learning","48","0","noReaction","singleNegative"
"null","<img src=stimuli/-.jpg ></img>","null","html-keyboard-response","157","302729","0.0-6.0-2.47","feedback","","","",""
"null","<div style=""color:black; font-size:60px;""></div>","null","html-keyboard-response","158","304735","0.0-6.0-0.48","fixation","","","",""
"null","<img src='stimuli/s13.jpg'><img src=''>","null","html-keyboard-response","159","307741","0.0-6.0-1.48","learning","49","0","allergy","singlePositive"
"null","<img src=stimuli/+.jpg ></img>","null","html-keyboard-response","160","308745","0.0-6.0-2.48","feedback","","","",""
"null","<div style=""color:black; font-size:60px;""></div>","null","html-keyboard-response","161","310749","0.0-6.0-0.49","fixation","","","",""
"null","<img src='stimuli/s15.jpg'><img src=''>","null","html-keyboard-response","162","313756","0.0-6.0-1.49","learning","48","0","noReaction","singleNegative"
"null","<img src=stimuli/-.jpg ></img>","null","html-keyboard-response","163","314760","0.0-6.0-2.49","feedback","","","",""
"null","<div style=""color:black; font-size:60px;""></div>","null","html-keyboard-response","164","316767","0.0-6.0-0.50","fixation","","","",""
"null","<img src='stimuli/s9.jpg'><img src=''>","null","html-keyboard-response","165","319769","0.0-6.0-1.50","learning","48","0","noReaction","singleNegative"
"null","<img src=stimuli/-.jpg ></img>","null","html-keyboard-response","166","320774","0.0-6.0-2.50","feedback","","","",""
"null","<div style=""color:black; font-size:60px;""></div>","null","html-keyboard-response","167","322782","0.0-6.0-0.51","fixation","","","",""
"null","<img src='stimuli/s12.jpg'><img src=''>","null","html-keyboard-response","168","325788","0.0-6.0-1.51","learning","49","0","allergy","singlePositive"
"null","<img src=stimuli/+.jpg ></img>","null","html-keyboard-response","169","326790","0.0-6.0-2.51","feedback","","","",""
"null","<div style=""color:black; font-size:60px;""></div>","null","html-keyboard-response","170","328792","0.0-6.0-0.52","fixation","","","",""
"null","<img src='stimuli/s13.jpg'><img src=''>","null","html-keyboard-response","171","331795","0.0-6.0-1.52","learning","49","0","allergy","singlePositive"
"null","<img src=stimuli/+.jpg ></img>","null","html-keyboard-response","172","332799","0.0-6.0-2.52","feedback","","","",""
"null","<div style=""color:black; font-size:60px;""></div>","null","html-keyboard-response","173","334805","0.0-6.0-0.53","fixation","","","",""
"null","<img src='stimuli/s7.jpg'><img src=''>","null","html-keyboard-response","174","337807","0.0-6.0-1.53","learning","48","0","noReaction","singleNegative"
"null","<img src=stimuli/-.jpg ></img>","null","html-keyboard-response","175","338809","0.0-6.0-2.53","feedback","","","",""
"null","<div style=""color:black; font-size:60px;""></div>","null","html-keyboard-response","176","340811","0.0-6.0-0.54","fixation","","","",""
"null","<img src='stimuli/s2.jpg'><img src=''>","null","html-keyboard-response","177","343815","0.0-6.0-1.54","learning","49","0","allergy","singlePositive"
"null","<img src=stimuli/+.jpg ></img>","null","html-keyboard-response","178","344820","0.0-6.0-2.54","feedback","","","",""
"null","<div style=""color:black; font-size:60px;""></div>","null","html-keyboard-response","179","347014","0.0-6.0-0.55","fixation","","","",""
"null","<img src='stimuli/s8.jpg'><img src=''>","null","html-keyboard-response","180","350993","0.0-6.0-1.55","learning","48","0","noReaction","singleNegative"
"null","<img src=stimuli/-.jpg ></img>","null","html-keyboard-response","181","353829","0.0-6.0-2.55","feedback","","","",""
"null","<div style=""color:black; font-size:60px;""></div>","null","html-keyboard-response","182","357454","0.0-6.0-0.56","fixation","","","",""
"null","<img src='stimuli/s12.jpg'><img src=''>","null","html-keyboard-response","183","361230","0.0-6.0-1.56","learning","49","0","allergy","singlePositive"
"null","<img src=stimuli/+.jpg ></img>","null","html-keyboard-response","184","363835","0.0-6.0-2.56","feedback","","","",""
"null","<div style=""color:black; font-size:60px;""></div>","null","html-keyboard-response","185","367325","0.0-6.0-0.57","fixation","","","",""
"null","<img src='stimuli/s9.jpg'><img src=''>","null","html-keyboard-response","186","371714","0.0-6.0-1.57","learning","48","0","noReaction","singleNegative"
"null","<img src=stimuli/-.jpg ></img>","null","html-keyboard-response","187","373595","0.0-6.0-2.57","feedback","","","",""
"null","<div style=""color:black; font-size:60px;""></div>","null","html-keyboard-response","188","377521","0.0-6.0-0.58","fixation","","","",""
"null","<img src='stimuli/s8.jpg'><img src=''>","null","html-keyboard-response","189","381403","0.0-6.0-1.58","learning","48","0","noReaction","singleNegative"
"null","<img src=stimuli/-.jpg ></img>","null","html-keyboard-response","190","383302","0.0-6.0-2.58","feedback","","","",""
"null","<div style=""color:black; font-size:60px;""></div>","null","html-keyboard-response","191","387671","0.0-6.0-0.59","fixation","","","",""
"null","<img src='stimuli/s13.jpg'><img src=''>","null","html-keyboard-response","192","391246","0.0-6.0-1.59","learning","49","0","allergy","singlePositive"
"null","<img src=stimuli/+.jpg ></img>","null","html-keyboard-response","193","393506","0.0-6.0-2.59","feedback","","","",""
"null","<div style=""color:black; font-size:60px;""></div>","null","html-keyboard-response","194","397177","0.0-6.0-0.60","fixation","","","",""
"null","<img src='stimuli/s2.jpg'><img src=''>","null","html-keyboard-response","195","401131","0.0-6.0-1.60","learning","49","0","allergy","singlePositive"
"null","<img src=stimuli/+.jpg ></img>","null","html-keyboard-response","196","403118","0.0-6.0-2.60","feedback","","","",""
"null","<div style=""color:black; font-size:60px;""></div>","null","html-keyboard-response","197","407010","0.0-6.0-0.61","fixation","","","",""
"null","<img src='stimuli/s15.jpg'><img src=''>","null","html-keyboard-response","198","410973","0.0-6.0-1.61","learning","48","0","noReaction","singleNegative"
"null","<img src=stimuli/-.jpg ></img>","null","html-keyboard-response","199","413242","0.0-6.0-2.61","feedback","","","",""
"null","<div style=""color:black; font-size:60px;""></div>","null","html-keyboard-response","200","417599","0.0-6.0-0.62","fixation","","","",""
"null","<img src='stimuli/s7.jpg'><img src=''>","null","html-keyboard-response","201","421473","0.0-6.0-1.62","learning","48","0","noReaction","singleNegative"
"null","<img src=stimuli/-.jpg ></img>","null","html-keyboard-response","202","423347","0.0-6.0-2.62","feedback","","","",""
"null","<div style=""color:black; font-size:60px;""></div>","null","html-keyboard-response","203","427284","0.0-6.0-0.63","fixation","","","",""
"null","<img src='stimuli/s15.jpg'><img src=''>","null","html-keyboard-response","204","431693","0.0-6.0-1.63","learning","48","0","noReaction","singleNegative"
"null","<img src=stimuli/-.jpg ></img>","null","html-keyboard-response","205","433456","0.0-6.0-2.63","feedback","","","",""
"null","<div style=""color:black; font-size:60px;""></div>","null","html-keyboard-response","206","437360","0.0-6.0-0.64","fixation","","","",""
"null","<img src='stimuli/s7.jpg'><img src=''>","null","html-keyboard-response","207","441584","0.0-6.0-1.64","learning","48","0","noReaction","singleNegative"
"null","<img src=stimuli/-.jpg ></img>","null","html-keyboard-response","208","443351","0.0-6.0-2.64","feedback","","","",""
"null","<div style=""color:black; font-size:60px;""></div>","null","html-keyboard-response","209","447508","0.0-6.0-0.65","fixation","","","",""
"null","<img src='stimuli/s8.jpg'><img src=''>","null","html-keyboard-response","210","450973","0.0-6.0-1.65","learning","48","0","noReaction","singleNegative"
"null","<img src=stimuli/-.jpg ></img>","null","html-keyboard-response","211","453161","0.0-6.0-2.65","feedback","","","",""
"null","<div style=""color:black; font-size:60px;""></div>","null","html-keyboard-response","212","456984","0.0-6.0-0.66","fixation","","","",""
"null","<img src='stimuli/s13.jpg'><img src=''>","null","html-keyboard-response","213","460993","0.0-6.0-1.66","learning","49","0","allergy","singlePositive"
"null","<img src=stimuli/+.jpg ></img>","null","html-keyboard-response","214","463377","0.0-6.0-2.66","feedback","","","",""
"null","<div style=""color:black; font-size:60px;""></div>","null","html-keyboard-response","215","466973","0.0-6.0-0.67","fixation","","","",""
"null","<img src='stimuli/s2.jpg'><img src=''>","null","html-keyboard-response","216","470985","0.0-6.0-1.67","learning","49","0","allergy","singlePositive"
"null","<img src=stimuli/+.jpg ></img>","null","html-keyboard-response","217","472974","0.0-6.0-2.67","feedback","","","",""
"null","<div style=""color:black; font-size:60px;""></div>","null","html-keyboard-response","218","477350","0.0-6.0-0.68","fixation","","","",""
"null","<img src='stimuli/s9.jpg'><img src=''>","null","html-keyboard-response","219","481356","0.0-6.0-1.68","learning","48","0","noReaction","singleNegative"
"null","<img src=stimuli/-.jpg ></img>","null","html-keyboard-response","220","483266","0.0-6.0-2.68","feedback","","","",""
"null","<div style=""color:black; font-size:60px;""></div>","null","html-keyboard-response","221","487032","0.0-6.0-0.69","fixation","","","",""
"null","<img src='stimuli/s12.jpg'><img src=''>","null","html-keyboard-response","222","490974","0.0-6.0-1.69","learning","49","0","allergy","singlePositive"
"null","<img src=stimuli/+.jpg ></img>","null","html-keyboard-response","223","493129","0.0-6.0-2.69","feedback","","","",""
"null","<div style=""color:black; font-size:60px;""></div>","null","html-keyboard-response","224","496974","0.0-7.0-0.0","fixation","","","",""
"null","<img src='stimuli/s17.jpg'><img src='stimuli/s8.jpg'>","null","html-keyboard-response","225","500974","0.0-7.0-1.0","blocking","48","0","noReaction","noAllergyControl"
"null","<img src=stimuli/-.jpg ></img>","null","html-keyboard-response","226","503726","0.0-7.0-2.0","feedback","","","",""
"null","<div style=""color:black; font-size:60px;""></div>","null","html-keyboard-response","227","507442","0.0-7.0-0.1","fixation","","","",""
"null","<img src='stimuli/s7.jpg'><img src=''>","null","html-keyboard-response","228","511185","0.0-7.0-1.1","blocking","48","0","noReaction","consistentNoAllergy"
"null","<img src=stimuli/-.jpg ></img>","null","html-keyboard-response","229","513190","0.0-7.0-2.1","feedback","","","",""
"null","<div style=""color:black; font-size:60px;""></div>","null","html-keyboard-response","230","517247","0.0-7.0-0.2","fixation","","","",""
"null","<img src='stimuli/s15.jpg'><img src='stimuli/s10.jpg'>","null","html-keyboard-response","231","521697","0.0-7.0-1.2","blocking","49","0","allergy","blockingControl"
"null","<img src=stimuli/+.jpg ></img>","null","html-keyboard-response","232","523597","0.0-7.0-2.2","feedback","","","",""
"null","<div style=""color:black; font-size:60px;""></div>","null","html-keyboard-response","233","527200","0.0-7.0-0.3","fixation","","","",""
"null","<img src='stimuli/s2.jpg'><img src=''>","null","html-keyboard-response","234","531104","0.0-7.0-1.3","blocking","49","0","allergy","consistentAllergy"
"null","<img src=stimuli/+.jpg ></img>","null","html-keyboard-response","235","533907","0.0-7.0-2.3","feedback","","","",""
"null","<div style=""color:black; font-size:60px;""></div>","null","html-keyboard-response","236","537490","0.0-7.0-0.4","fixation","","","",""
"null","<img src='stimuli/s13.jpg'><img src='stimuli/s5.jpg'>","null","html-keyboard-response","237","541309","0.0-7.0-1.4","blocking","49","0","allergy","blocking"
"null","<img src=stimuli/+.jpg ></img>","null","html-keyboard-response","238","543306","0.0-7.0-2.4","feedback","","","",""
"null","<div style=""color:black; font-size:60px;""></div>","null","html-keyboard-response","239","547642","0.0-7.0-0.5","fixation","","","",""
"null","<img src='stimuli/s12.jpg'><img src='stimuli/s18.jpg'>","null","html-keyboard-response","240","551520","0.0-7.0-1.5","blocking","49","0","allergy","blocking"
"null","<img src=stimuli/+.jpg ></img>","null","html-keyboard-response","241","553425","0.0-7.0-2.5","feedback","","","",""
"null","<div style=""color:black; font-size:60px;""></div>","null","html-keyboard-response","242","556994","0.0-7.0-0.6","fixation","","","",""
"null","<img src='stimuli/s9.jpg'><img src='stimuli/s14.jpg'>","null","html-keyboard-response","243","561761","0.0-7.0-1.6","blocking","49","0","allergy","blockingControl"
"null","<img src=stimuli/+.jpg ></img>","null","html-keyboard-response","244","563574","0.0-7.0-2.6","feedback","","","",""
"null","<div style=""color:black; font-size:60px;""></div>","null","html-keyboard-response","245","567084","0.0-7.0-0.7","fixation","","","",""
"null","<img src='stimuli/s12.jpg'><img src='stimuli/s18.jpg'>","null","html-keyboard-response","246","570088","0.0-7.0-1.7","blocking","49","0","allergy","blocking"
"null","<img src=stimuli/+.jpg ></img>","null","html-keyboard-response","247","571090","0.0-7.0-2.7","feedback","","","",""
"null","<div style=""color:black; font-size:60px;""></div>","null","html-keyboard-response","248","573096","0.0-7.0-0.8","fixation","","","",""
"null","<img src='stimuli/s7.jpg'><img src=''>","null","html-keyboard-response","249","576101","0.0-7.0-1.8","blocking","48","0","noReaction","consistentNoAllergy"
"null","<img src=stimuli/-.jpg ></img>","null","html-keyboard-response","250","577103","0.0-7.0-2.8","feedback","","","",""
"null","<div style=""color:black; font-size:60px;""></div>","null","html-keyboard-response","251","579111","0.0-7.0-0.9","fixation","","","",""
"null","<img src='stimuli/s9.jpg'><img src='stimuli/s14.jpg'>","null","html-keyboard-response","252","582113","0.0-7.0-1.9","blocking","49","0","allergy","blockingControl"
"null","<img src=stimuli/+.jpg ></img>","null","html-keyboard-response","253","583117","0.0-7.0-2.9","feedback","","","",""
"null","<div style=""color:black; font-size:60px;""></div>","null","html-keyboard-response","254","585125","0.0-7.0-0.10","fixation","","","",""
"null","<img src='stimuli/s2.jpg'><img src=''>","null","html-keyboard-response","255","588131","0.0-7.0-1.10","blocking","49","0","allergy","consistentAllergy"
"null","<img src=stimuli/+.jpg ></img>","null","html-keyboard-response","256","589136","0.0-7.0-2.10","feedback","","","",""
"null","<div style=""color:black; font-size:60px;""></div>","null","html-keyboard-response","257","591145","0.0-7.0-0.11","fixation","","","",""
"null","<img src='stimuli/s17.jpg'><img src='stimuli/s8.jpg'>","null","html-keyboard-response","258","594147","0.0-7.0-1.11","blocking","48","0","noReaction","noAllergyControl"
"null","<img src=stimuli/-.jpg ></img>","null","html-keyboard-response","259","595148","0.0-7.0-2.11","feedback","","","",""
"null","<div style=""color:black; font-size:60px;""></div>","null","html-keyboard-response","260","597154","0.0-7.0-0.12","fixation","","","",""
"null","<img src='stimuli/s13.jpg'><img src='stimuli/s5.jpg'>","null","html-keyboard-response","261","600157","0.0-7.0-1.12","blocking","49","0","allergy","blocking"
"null","<img src=stimuli/+.jpg ></img>","null","html-keyboard-response","262","601162","0.0-7.0-2.12","feedback","","","",""
"null","<div style=""color:black; font-size:60px;""></div>","null","html-keyboard-response","263","603164","0.0-7.0-0.13","fixation","","","",""
"null","<img src='stimuli/s15.jpg'><img src='stimuli/s10.jpg'>","null","html-keyboard-response","264","606166","0.0-7.0-1.13","blocking","49","0","allergy","blockingControl"
"null","<img src=stimuli/+.jpg ></img>","null","html-keyboard-response","265","607170","0.0-7.0-2.13","feedback","","","",""
"null","<div style=""color:black; font-size:60px;""></div>","null","html-keyboard-response","266","609178","0.0-7.0-0.14","fixation","","","",""
"null","<img src='stimuli/s2.jpg'><img src=''>","null","html-keyboard-response","267","612182","0.0-7.0-1.14","blocking","49","0","allergy","consistentAllergy"
"null","<img src=stimuli/+.jpg ></img>","null","html-keyboard-response","268","613187","0.0-7.0-2.14","feedback","","","",""
"null","<div style=""color:black; font-size:60px;""></div>","null","html-keyboard-response","269","615192","0.0-7.0-0.15","fixation","","","",""
"null","<img src='stimuli/s12.jpg'><img src='stimuli/s18.jpg'>","null","html-keyboard-response","270","618195","0.0-7.0-1.15","blocking","49","0","allergy","blocking"
"null","<img src=stimuli/+.jpg ></img>","null","html-keyboard-response","271","619199","0.0-7.0-2.15","feedback","","","",""
"null","<div style=""color:black; font-size:60px;""></div>","null","html-keyboard-response","272","621207","0.0-7.0-0.16","fixation","","","",""
"null","<img src='stimuli/s7.jpg'><img src=''>","null","html-keyboard-response","273","624211","0.0-7.0-1.16","blocking","48","0","noReaction","consistentNoAllergy"
"null","<img src=stimuli/-.jpg ></img>","null","html-keyboard-response","274","625216","0.0-7.0-2.16","feedback","","","",""
"null","<div style=""color:black; font-size:60px;""></div>","null","html-keyboard-response","275","627224","0.0-7.0-0.17","fixation","","","",""
"null","<img src='stimuli/s15.jpg'><img src='stimuli/s10.jpg'>","null","html-keyboard-response","276","630227","0.0-7.0-1.17","blocking","49","0","allergy","blockingControl"
"null","<img src=stimuli/+.jpg ></img>","null","html-keyboard-response","277","631231","0.0-7.0-2.17","feedback","","","",""
"null","<div style=""color:black; font-size:60px;""></div>","null","html-keyboard-response","278","633238","0.0-7.0-0.18","fixation","","","",""
"null","<img src='stimuli/s17.jpg'><img src='stimuli/s8.jpg'>","null","html-keyboard-response","279","636240","0.0-7.0-1.18","blocking","48","0","noReaction","noAllergyControl"
"null","<img src=stimuli/-.jpg ></img>","null","html-keyboard-response","280","637245","0.0-7.0-2.18","feedback","","","",""
"null","<div style=""color:black; font-size:60px;""></div>","null","html-keyboard-response","281","639250","0.0-7.0-0.19","fixation","","","",""
"null","<img src='stimuli/s9.jpg'><img src='stimuli/s14.jpg'>","null","html-keyboard-response","282","642254","0.0-7.0-1.19","blocking","49","0","allergy","blockingControl"
"null","<img src=stimuli/+.jpg ></img>","null","html-keyboard-response","283","643257","0.0-7.0-2.19","feedback","","","",""
"null","<div style=""color:black; font-size:60px;""></div>","null","html-keyboard-response","284","645265","0.0-7.0-0.20","fixation","","","",""
"null","<img src='stimuli/s13.jpg'><img src='stimuli/s5.jpg'>","null","html-keyboard-response","285","648268","0.0-7.0-1.20","blocking","49","0","allergy","blocking"
"null","<img src=stimuli/+.jpg ></img>","null","html-keyboard-response","286","649273","0.0-7.0-2.20","feedback","","","",""
"null","<div style=""color:black; font-size:60px;""></div>","null","html-keyboard-response","287","651281","0.0-7.0-0.21","fixation","","","",""
"null","<img src='stimuli/s17.jpg'><img src='stimuli/s8.jpg'>","null","html-keyboard-response","288","654287","0.0-7.0-1.21","blocking","48","0","noReaction","noAllergyControl"
"null","<img src=stimuli/-.jpg ></img>","null","html-keyboard-response","289","655289","0.0-7.0-2.21","feedback","","","",""
"null","<div style=""color:black; font-size:60px;""></div>","null","html-keyboard-response","290","657294","0.0-7.0-0.22","fixation","","","",""
"null","<img src='stimuli/s9.jpg'><img src='stimuli/s14.jpg'>","null","html-keyboard-response","291","660298","0.0-7.0-1.22","blocking","49","0","allergy","blockingControl"
"null","<img src=stimuli/+.jpg ></img>","null","html-keyboard-response","292","661301","0.0-7.0-2.22","feedback","","","",""
"null","<div style=""color:black; font-size:60px;""></div>","null","html-keyboard-response","293","663306","0.0-7.0-0.23","fixation","","","",""
"null","<img src='stimuli/s13.jpg'><img src='stimuli/s5.jpg'>","null","html-keyboard-response","294","666309","0.0-7.0-1.23","blocking","49","0","allergy","blocking"
"null","<img src=stimuli/+.jpg ></img>","null","html-keyboard-response","295","667314","0.0-7.0-2.23","feedback","","","",""
"null","<div style=""color:black; font-size:60px;""></div>","null","html-keyboard-response","296","669318","0.0-7.0-0.24","fixation","","","",""
"null","<img src='stimuli/s7.jpg'><img src=''>","null","html-keyboard-response","297","672325","0.0-7.0-1.24","blocking","48","0","noReaction","consistentNoAllergy"
"null","<img src=stimuli/-.jpg ></img>","null","html-keyboard-response","298","673327","0.0-7.0-2.24","feedback","","","",""
"null","<div style=""color:black; font-size:60px;""></div>","null","html-keyboard-response","299","675335","0.0-7.0-0.25","fixation","","","",""
"null","<img src='stimuli/s15.jpg'><img src='stimuli/s10.jpg'>","null","html-keyboard-response","300","678340","0.0-7.0-1.25","blocking","49","0","allergy","blockingControl"
"null","<img src=stimuli/+.jpg ></img>","null","html-keyboard-response","301","679344","0.0-7.0-2.25","feedback","","","",""
"null","<div style=""color:black; font-size:60px;""></div>","null","html-keyboard-response","302","681348","0.0-7.0-0.26","fixation","","","",""
"null","<img src='stimuli/s12.jpg'><img src='stimuli/s18.jpg'>","null","html-keyboard-response","303","684352","0.0-7.0-1.26","blocking","49","0","allergy","blocking"
"null","<img src=stimuli/+.jpg ></img>","null","html-keyboard-response","304","685356","0.0-7.0-2.26","feedback","","","",""
"null","<div style=""color:black; font-size:60px;""></div>","null","html-keyboard-response","305","687362","0.0-7.0-0.27","fixation","","","",""
"null","<img src='stimuli/s2.jpg'><img src=''>","null","html-keyboard-response","306","690363","0.0-7.0-1.27","blocking","49","0","allergy","consistentAllergy"
"null","<img src=stimuli/+.jpg ></img>","null","html-keyboard-response","307","691367","0.0-7.0-2.27","feedback","","","",""
"null","<div style=""color:black; font-size:60px;""></div>","null","html-keyboard-response","308","693375","0.0-7.0-0.28","fixation","","","",""
"null","<img src='stimuli/s17.jpg'><img src='stimuli/s8.jpg'>","null","html-keyboard-response","309","696378","0.0-7.0-1.28","blocking","48","0","noReaction","noAllergyControl"
"null","<img src=stimuli/-.jpg ></img>","null","html-keyboard-response","310","697383","0.0-7.0-2.28","feedback","","","",""
"null","<div style=""color:black; font-size:60px;""></div>","null","html-keyboard-response","311","699390","0.0-7.0-0.29","fixation","","","",""
"null","<img src='stimuli/s12.jpg'><img src='stimuli/s18.jpg'>","null","html-keyboard-response","312","702394","0.0-7.0-1.29","blocking","49","0","allergy","blocking"
"null","<img src=stimuli/+.jpg ></img>","null","html-keyboard-response","313","703398","0.0-7.0-2.29","feedback","","","",""
"null","<div style=""color:black; font-size:60px;""></div>","null","html-keyboard-response","314","705405","0.0-7.0-0.30","fixation","","","",""
"null","<img src='stimuli/s2.jpg'><img src=''>","null","html-keyboard-response","315","708411","0.0-7.0-1.30","blocking","49","0","allergy","consistentAllergy"
"null","<img src=stimuli/+.jpg ></img>","null","html-keyboard-response","316","709416","0.0-7.0-2.30","feedback","","","",""
"null","<div style=""color:black; font-size:60px;""></div>","null","html-keyboard-response","317","711420","0.0-7.0-0.31","fixation","","","",""
"null","<img src='stimuli/s7.jpg'><img src=''>","null","html-keyboard-response","318","714425","0.0-7.0-1.31","blocking","48","0","noReaction","consistentNoAllergy"
"null","<img src=stimuli/-.jpg ></img>","null","html-keyboard-response","319","715430","0.0-7.0-2.31","feedback","","","",""
"null","<div style=""color:black; font-size:60px;""></div>","null","html-keyboard-response","320","717434","0.0-7.0-0.32","fixation","","","",""
"null","<img src='stimuli/s13.jpg'><img src='stimuli/s5.jpg'>","null","html-keyboard-response","321","720439","0.0-7.0-1.32","blocking","49","0","allergy","blocking"
"null","<img src=stimuli/+.jpg ></img>","null","html-keyboard-response","322","721444","0.0-7.0-2.32","feedback","","","",""
"null","<div style=""color:black; font-size:60px;""></div>","null","html-keyboard-response","323","723453","0.0-7.0-0.33","fixation","","","",""
"null","<img src='stimuli/s15.jpg'><img src='stimuli/s10.jpg'>","null","html-keyboard-response","324","726456","0.0-7.0-1.33","blocking","49","0","allergy","blockingControl"
"null","<img src=stimuli/+.jpg ></img>","null","html-keyboard-response","325","727461","0.0-7.0-2.33","feedback","","","",""
"null","<div style=""color:black; font-size:60px;""></div>","null","html-keyboard-response","326","729469","0.0-7.0-0.34","fixation","","","",""
"null","<img src='stimuli/s9.jpg'><img src='stimuli/s14.jpg'>","null","html-keyboard-response","327","732471","0.0-7.0-1.34","blocking","49","0","allergy","blockingControl"
"null","<img src=stimuli/+.jpg ></img>","null","html-keyboard-response","328","733476","0.0-7.0-2.34","feedback","","","",""
"null","<div style=""color:black; font-size:60px;""></div>","null","html-keyboard-response","329","735486","0.0-7.0-0.35","fixation","","","",""
"null","<img src='stimuli/s12.jpg'><img src='stimuli/s18.jpg'>","null","html-keyboard-response","330","738492","0.0-7.0-1.35","blocking","49","0","allergy","blocking"
"null","<img src=stimuli/+.jpg ></img>","null","html-keyboard-response","331","739497","0.0-7.0-2.35","feedback","","","",""
"null","<div style=""color:black; font-size:60px;""></div>","null","html-keyboard-response","332","741502","0.0-7.0-0.36","fixation","","","",""
"null","<img src='stimuli/s15.jpg'><img src='stimuli/s10.jpg'>","null","html-keyboard-response","333","744505","0.0-7.0-1.36","blocking","49","0","allergy","blockingControl"
"null","<img src=stimuli/+.jpg ></img>","null","html-keyboard-response","334","745510","0.0-7.0-2.36","feedback","","","",""
"null","<div style=""color:black; font-size:60px;""></div>","null","html-keyboard-response","335","747515","0.0-7.0-0.37","fixation","","","",""
"null","<img src='stimuli/s9.jpg'><img src='stimuli/s14.jpg'>","null","html-keyboard-response","336","750522","0.0-7.0-1.37","blocking","49","0","allergy","blockingControl"
"null","<img src=stimuli/+.jpg ></img>","null","html-keyboard-response","337","751528","0.0-7.0-2.37","feedback","","","",""
"null","<div style=""color:black; font-size:60px;""></div>","null","html-keyboard-response","338","753534","0.0-7.0-0.38","fixation","","","",""
"null","<img src='stimuli/s2.jpg'><img src=''>","null","html-keyboard-response","339","756539","0.0-7.0-1.38","blocking","49","0","allergy","consistentAllergy"
"null","<img src=stimuli/+.jpg ></img>","null","html-keyboard-response","340","757543","0.0-7.0-2.38","feedback","","","",""
"null","<div style=""color:black; font-size:60px;""></div>","null","html-keyboard-response","341","759547","0.0-7.0-0.39","fixation","","","",""
"null","<img src='stimuli/s13.jpg'><img src='stimuli/s5.jpg'>","null","html-keyboard-response","342","762551","0.0-7.0-1.39","blocking","49","0","allergy","blocking"
"null","<img src=stimuli/+.jpg ></img>","null","html-keyboard-response","343","763556","0.0-7.0-2.39","feedback","","","",""
"null","<div style=""color:black; font-size:60px;""></div>","null","html-keyboard-response","344","765565","0.0-7.0-0.40","fixation","","","",""
"null","<img src='stimuli/s7.jpg'><img src=''>","null","html-keyboard-response","345","768567","0.0-7.0-1.40","blocking","48","0","noReaction","consistentNoAllergy"
"null","<img src=stimuli/-.jpg ></img>","null","html-keyboard-response","346","769572","0.0-7.0-2.40","feedback","","","",""
"null","<div style=""color:black; font-size:60px;""></div>","null","html-keyboard-response","347","771581","0.0-7.0-0.41","fixation","","","",""
"null","<img src='stimuli/s17.jpg'><img src='stimuli/s8.jpg'>","null","html-keyboard-response","348","774583","0.0-7.0-1.41","blocking","48","0","noReaction","noAllergyControl"
"null","<img src=stimuli/-.jpg ></img>","null","html-keyboard-response","349","775588","0.0-7.0-2.41","feedback","","","",""
"null","<div style=""color:black; font-size:60px;""></div>","null","html-keyboard-response","350","777593","0.0-8.0-0.0","fixation","","","",""
"null","<img src='stimuli/s18.jpg'><img src=''>","null","html-keyboard-response","351","780599","0.0-8.0-1.0","testing","48","0","noReaction","blockingConfirmation"
"null","<img src=stimuli/-.jpg ></img>","null","html-keyboard-response","352","781602","0.0-8.0-2.0","feedback","","","",""
"null","<div style=""color:black; font-size:60px;""></div>","null","html-keyboard-response","353","783608","0.0-8.0-0.1","fixation","","","",""
"null","<img src='stimuli/s14.jpg'><img src=''>","null","html-keyboard-response","354","786614","0.0-8.0-1.1","testing","48","0","noReaction","blockingViolationControl"
"null","<img src=stimuli/-.jpg ></img>","null","html-keyboard-response","355","787620","0.0-8.0-2.1","feedback","","","",""
"null","<div style=""color:black; font-size:60px;""></div>","null","html-keyboard-response","356","789625","0.0-8.0-0.2","fixation","","","",""
"null","<img src='stimuli/s2.jpg'><img src='stimuli/s8.jpg'>","null","html-keyboard-response","357","792626","0.0-8.0-1.2","testing","49","0","allergy","consistentAllergy"
"null","<img src=stimuli/+.jpg ></img>","null","html-keyboard-response","358","793631","0.0-8.0-2.2","feedback","","","",""
"null","<div style=""color:black; font-size:60px;""></div>","null","html-keyboard-response","359","795637","0.0-8.0-0.3","fixation","","","",""
"null","<img src='stimuli/s7.jpg'><img src=''>","null","html-keyboard-response","360","798643","0.0-8.0-1.3","testing","48","0","noReaction","consistentNoAllergy"
"null","<img src=stimuli/-.jpg ></img>","null","html-keyboard-response","361","799644","0.0-8.0-2.3","feedback","","","",""
"null","<div style=""color:black; font-size:60px;""></div>","null","html-keyboard-response","362","801649","0.0-8.0-0.4","fixation","","","",""
"null","<img src='stimuli/s10.jpg'><img src=''>","null","html-keyboard-response","363","804651","0.0-8.0-1.4","testing","49","0","allergy","blockingConfirmationControl"
"null","<img src=stimuli/+.jpg ></img>","null","html-keyboard-response","364","806031","0.0-8.0-2.4","feedback","","","",""
"null","<div style=""color:black; font-size:60px;""></div>","null","html-keyboard-response","365","809984","0.0-8.0-0.5","fixation","","","",""
"null","<img src='stimuli/s5.jpg'><img src=''>","null","html-keyboard-response","366","813997","0.0-8.0-1.5","testing","49","0","allergy","blockingViolation"
"null","<img src=stimuli/+.jpg ></img>","null","html-keyboard-response","367","816375","0.0-8.0-2.5","feedback","","","",""
"null","<div style=""color:black; font-size:60px;""></div>","null","html-keyboard-response","368","820626","0.0-8.0-0.6","fixation","","","",""
"null","<img src='stimuli/s17.jpg'><img src=''>","null","html-keyboard-response","369","824301","0.0-8.0-1.6","testing","48","0","noReaction","noAllergyControl"
"null","<img src=stimuli/-.jpg ></img>","null","html-keyboard-response","370","826262","0.0-8.0-2.6","feedback","","","",""
"null","<div style=""color:black; font-size:60px;""></div>","null","html-keyboard-response","371","830063","0.0-8.0-0.7","fixation","","","",""
"null","<img src='stimuli/s5.jpg'><img src=''>","null","html-keyboard-response","372","833143","0.0-8.0-1.7","testing","49","0","allergy","blockingViolation"
"null","<img src=stimuli/+.jpg ></img>","null","html-keyboard-response","373","834144","0.0-8.0-2.7","feedback","","","",""
"null","<div style=""color:black; font-size:60px;""></div>","null","html-keyboard-response","374","836284","0.0-8.0-0.8","fixation","","","",""
"null","<img src='stimuli/s14.jpg'><img src=''>","null","html-keyboard-response","375","839291","0.0-8.0-1.8","testing","48","0","noReaction","blockingViolationControl"
"null","<img src=stimuli/-.jpg ></img>","null","html-keyboard-response","376","840294","0.0-8.0-2.8","feedback","","","",""
"null","<div style=""color:black; font-size:60px;""></div>","null","html-keyboard-response","377","842300","0.0-8.0-0.9","fixation","","","",""
"null","<img src='stimuli/s17.jpg'><img src=''>","null","html-keyboard-response","378","845307","0.0-8.0-1.9","testing","48","0","noReaction","noAllergyControl"
"null","<img src=stimuli/-.jpg ></img>","null","html-keyboard-response","379","846311","0.0-8.0-2.9","feedback","","","",""
"null","<div style=""color:black; font-size:60px;""></div>","null","html-keyboard-response","380","848316","0.0-8.0-0.10","fixation","","","",""
"null","<img src='stimuli/s18.jpg'><img src=''>","null","html-keyboard-response","381","851323","0.0-8.0-1.10","testing","48","0","noReaction","blockingConfirmation"
"null","<img src=stimuli/-.jpg ></img>","null","html-keyboard-response","382","852327","0.0-8.0-2.10","feedback","","","",""
"null","<div style=""color:black; font-size:60px;""></div>","null","html-keyboard-response","383","854335","0.0-8.0-0.11","fixation","","","",""
"null","<img src='stimuli/s7.jpg'><img src=''>","null","html-keyboard-response","384","857338","0.0-8.0-1.11","testing","48","0","noReaction","consistentNoAllergy"
"null","<img src=stimuli/-.jpg ></img>","null","html-keyboard-response","385","858343","0.0-8.0-2.11","feedback","","","",""
"null","<div style=""color:black; font-size:60px;""></div>","null","html-keyboard-response","386","860352","0.0-8.0-0.12","fixation","","","",""
"null","<img src='stimuli/s2.jpg'><img src='stimuli/s8.jpg'>","null","html-keyboard-response","387","863358","0.0-8.0-1.12","testing","49","0","allergy","consistentAllergy"
"null","<img src=stimuli/+.jpg ></img>","null","html-keyboard-response","388","864359","0.0-8.0-2.12","feedback","","","",""
"null","<div style=""color:black; font-size:60px;""></div>","null","html-keyboard-response","389","866362","0.0-8.0-0.13","fixation","","","",""
"null","<img src='stimuli/s10.jpg'><img src=''>","null","html-keyboard-response","390","869369","0.0-8.0-1.13","testing","49","0","allergy","blockingConfirmationControl"
"null","<img src=stimuli/+.jpg ></img>","null","html-keyboard-response","391","870373","0.0-8.0-2.13","feedback","","","",""
"null","<div style=""color:black; font-size:60px;""></div>","null","html-keyboard-response","392","872379","0.0-8.0-0.14","fixation","","","",""
"null","<img src='stimuli/s10.jpg'><img src=''>","null","html-keyboard-response","393","875382","0.0-8.0-1.14","testing","49","0","allergy","blockingConfirmationControl"
"null","<img src=stimuli/+.jpg ></img>","null","html-keyboard-response","394","876383","0.0-8.0-2.14","feedback","","","",""
"null","<div style=""color:black; font-size:60px;""></div>","null","html-keyboard-response","395","878392","0.0-8.0-0.15","fixation","","","",""
"null","<img src='stimuli/s7.jpg'><img src=''>","null","html-keyboard-response","396","881396","0.0-8.0-1.15","testing","48","0","noReaction","consistentNoAllergy"
"null","<img src=stimuli/-.jpg ></img>","null","html-keyboard-response","397","882398","0.0-8.0-2.15","feedback","","","",""
"null","<div style=""color:black; font-size:60px;""></div>","null","html-keyboard-response","398","884403","0.0-8.0-0.16","fixation","","","",""
"null","<img src='stimuli/s18.jpg'><img src=''>","null","html-keyboard-response","399","887410","0.0-8.0-1.16","testing","48","0","noReaction","blockingConfirmation"
"null","<img src=stimuli/-.jpg ></img>","null","html-keyboard-response","400","888413","0.0-8.0-2.16","feedback","","","",""
"null","<div style=""color:black; font-size:60px;""></div>","null","html-keyboard-response","401","890418","0.0-8.0-0.17","fixation","","","",""
"null","<img src='stimuli/s14.jpg'><img src=''>","null","html-keyboard-response","402","893421","0.0-8.0-1.17","testing","48","0","noReaction","blockingViolationControl"
"null","<img src=stimuli/-.jpg ></img>","null","html-keyboard-response","403","894425","0.0-8.0-2.17","feedback","","","",""
"null","<div style=""color:black; font-size:60px;""></div>","null","html-keyboard-response","404","896430","0.0-8.0-0.18","fixation","","","",""
"null","<img src='stimuli/s17.jpg'><img src=''>","null","html-keyboard-response","405","899436","0.0-8.0-1.18","testing","48","0","noReaction","noAllergyControl"
"null","<img src=stimuli/-.jpg ></img>","null","html-keyboard-response","406","900440","0.0-8.0-2.18","feedback","","","",""
"null","<div style=""color:black; font-size:60px;""></div>","null","html-keyboard-response","407","902447","0.0-8.0-0.19","fixation","","","",""
"null","<img src='stimuli/s2.jpg'><img src='stimuli/s8.jpg'>","null","html-keyboard-response","408","905454","0.0-8.0-1.19","testing","49","0","allergy","consistentAllergy"
"null","<img src=stimuli/+.jpg ></img>","null","html-keyboard-response","409","906458","0.0-8.0-2.19","feedback","","","",""
"null","<div style=""color:black; font-size:60px;""></div>","null","html-keyboard-response","410","908463","0.0-8.0-0.20","fixation","","","",""
"null","<img src='stimuli/s5.jpg'><img src=''>","null","html-keyboard-response","411","911465","0.0-8.0-1.20","testing","49","0","allergy","blockingViolation"
"null","<img src=stimuli/+.jpg ></img>","null","html-keyboard-response","412","912470","0.0-8.0-2.20","feedback","","","",""
"null","<div style=""color:black; font-size:60px;""></div>","null","html-keyboard-response","413","914478","0.0-8.0-0.21","fixation","","","",""
"null","<img src='stimuli/s14.jpg'><img src=''>","null","html-keyboard-response","414","917483","0.0-8.0-1.21","testing","48","0","noReaction","blockingViolationControl"
"null","<img src=stimuli/-.jpg ></img>","null","html-keyboard-response","415","918488","0.0-8.0-2.21","feedback","","","",""
"null","<div style=""color:black; font-size:60px;""></div>","null","html-keyboard-response","416","920492","0.0-8.0-0.22","fixation","","","",""
"null","<img src='stimuli/s17.jpg'><img src=''>","null","html-keyboard-response","417","923498","0.0-8.0-1.22","testing","48","0","noReaction","noAllergyControl"
"null","<img src=stimuli/-.jpg ></img>","null","html-keyboard-response","418","924503","0.0-8.0-2.22","feedback","","","",""
"null","<div style=""color:black; font-size:60px;""></div>","null","html-keyboard-response","419","926506","0.0-8.0-0.23","fixation","","","",""
"null","<img src='stimuli/s18.jpg'><img src=''>","null","html-keyboard-response","420","929512","0.0-8.0-1.23","testing","48","0","noReaction","blockingConfirmation"
"null","<img src=stimuli/-.jpg ></img>","null","html-keyboard-response","421","930515","0.0-8.0-2.23","feedback","","","",""
"null","<div style=""color:black; font-size:60px;""></div>","null","html-keyboard-response","422","932522","0.0-8.0-0.24","fixation","","","",""
"null","<img src='stimuli/s5.jpg'><img src=''>","null","html-keyboard-response","423","935526","0.0-8.0-1.24","testing","49","0","allergy","blockingViolation"
"null","<img src=stimuli/+.jpg ></img>","null","html-keyboard-response","424","936532","0.0-8.0-2.24","feedback","","","",""
"null","<div style=""color:black; font-size:60px;""></div>","null","html-keyboard-response","425","938538","0.0-8.0-0.25","fixation","","","",""
"null","<img src='stimuli/s7.jpg'><img src=''>","null","html-keyboard-response","426","941542","0.0-8.0-1.25","testing","48","0","noReaction","consistentNoAllergy"
"null","<img src=stimuli/-.jpg ></img>","null","html-keyboard-response","427","942548","0.0-8.0-2.25","feedback","","","",""
"null","<div style=""color:black; font-size:60px;""></div>","null","html-keyboard-response","428","944554","0.0-8.0-0.26","fixation","","","",""
"null","<img src='stimuli/s10.jpg'><img src=''>","null","html-keyboard-response","429","947559","0.0-8.0-1.26","testing","49","0","allergy","blockingConfirmationControl"
"null","<img src=stimuli/+.jpg ></img>","null","html-keyboard-response","430","948563","0.0-8.0-2.26","feedback","","","",""
"null","<div style=""color:black; font-size:60px;""></div>","null","html-keyboard-response","431","950569","0.0-8.0-0.27","fixation","","","",""
"null","<img src='stimuli/s2.jpg'><img src='stimuli/s8.jpg'>","null","html-keyboard-response","432","953576","0.0-8.0-1.27","testing","49","0","allergy","consistentAllergy"
"null","<img src=stimuli/+.jpg ></img>","null","html-keyboard-response","433","954581","0.0-8.0-2.27","feedback","","","",""
"null","<div style=""color:black; font-size:60px;""></div>","null","html-keyboard-response","434","956585","0.0-8.0-0.28","fixation","","","",""
"null","<img src='stimuli/s7.jpg'><img src=''>","null","html-keyboard-response","435","959592","0.0-8.0-1.28","testing","48","0","noReaction","consistentNoAllergy"
"null","<img src=stimuli/-.jpg ></img>","null","html-keyboard-response","436","960596","0.0-8.0-2.28","feedback","","","",""
"null","<div style=""color:black; font-size:60px;""></div>","null","html-keyboard-response","437","962600","0.0-8.0-0.29","fixation","","","",""
"null","<img src='stimuli/s18.jpg'><img src=''>","null","html-keyboard-response","438","965605","0.0-8.0-1.29","testing","48","0","noReaction","blockingConfirmation"
"null","<img src=stimuli/-.jpg ></img>","null","html-keyboard-response","439","966610","0.0-8.0-2.29","feedback","","","",""
"null","<div style=""color:black; font-size:60px;""></div>","null","html-keyboard-response","440","968616","0.0-8.0-0.30","fixation","","","",""
"null","<img src='stimuli/s17.jpg'><img src=''>","null","html-keyboard-response","441","971619","0.0-8.0-1.30","testing","48","0","noReaction","noAllergyControl"
"null","<img src=stimuli/-.jpg ></img>","null","html-keyboard-response","442","972621","0.0-8.0-2.30","feedback","","","",""
"null","<div style=""color:black; font-size:60px;""></div>","null","html-keyboard-response","443","974626","0.0-8.0-0.31","fixation","","","",""
"null","<img src='stimuli/s14.jpg'><img src=''>","null","html-keyboard-response","444","977628","0.0-8.0-1.31","testing","48","0","noReaction","blockingViolationControl"
"null","<img src=stimuli/-.jpg ></img>","null","html-keyboard-response","445","978634","0.0-8.0-2.31","feedback","","","",""
"null","<div style=""color:black; font-size:60px;""></div>","null","html-keyboard-response","446","980640","0.0-8.0-0.32","fixation","","","",""
"null","<img src='stimuli/s5.jpg'><img src=''>","null","html-keyboard-response","447","983646","0.0-8.0-1.32","testing","49","0","allergy","blockingViolation"
"null","<img src=stimuli/+.jpg ></img>","null","html-keyboard-response","448","984649","0.0-8.0-2.32","feedback","","","",""
"null","<div style=""color:black; font-size:60px;""></div>","null","html-keyboard-response","449","986656","0.0-8.0-0.33","fixation","","","",""
"null","<img src='stimuli/s10.jpg'><img src=''>","null","html-keyboard-response","450","989658","0.0-8.0-1.33","testing","49","0","allergy","blockingConfirmationControl"
"null","<img src=stimuli/+.jpg ></img>","null","html-keyboard-response","451","990662","0.0-8.0-2.33","feedback","","","",""
"null","<div style=""color:black; font-size:60px;""></div>","null","html-keyboard-response","452","992668","0.0-8.0-0.34","fixation","","","",""
"null","<img src='stimuli/s2.jpg'><img src='stimuli/s8.jpg'>","null","html-keyboard-response","453","995671","0.0-8.0-1.34","testing","49","0","allergy","consistentAllergy"
"null","<img src=stimuli/+.jpg ></img>","null","html-keyboard-response","454","996677","0.0-8.0-2.34","feedback","","","",""
"null","<div style=""color:black; font-size:60px;""></div>","null","html-keyboard-response","455","998682","0.0-8.0-0.35","fixation","","","",""
"null","<img src='stimuli/s2.jpg'><img src='stimuli/s8.jpg'>","null","html-keyboard-response","456","1001686","0.0-8.0-1.35","testing","49","0","allergy","consistentAllergy"
"null","<img src=stimuli/+.jpg ></img>","null","html-keyboard-response","457","1002688","0.0-8.0-2.35","feedback","","","",""
"null","<div style=""color:black; font-size:60px;""></div>","null","html-keyboard-response","458","1004695","0.0-8.0-0.36","fixation","","","",""
"null","<img src='stimuli/s7.jpg'><img src=''>","null","html-keyboard-response","459","1007697","0.0-8.0-1.36","testing","48","0","noReaction","consistentNoAllergy"
"null","<img src=stimuli/-.jpg ></img>","null","html-keyboard-response","460","1008701","0.0-8.0-2.36","feedback","","","",""
"null","<div style=""color:black; font-size:60px;""></div>","null","html-keyboard-response","461","1010707","0.0-8.0-0.37","fixation","","","",""
"null","<img src='stimuli/s14.jpg'><img src=''>","null","html-keyboard-response","462","1013713","0.0-8.0-1.37","testing","48","0","noReaction","blockingViolationControl"
"null","<img src=stimuli/-.jpg ></img>","null","html-keyboard-response","463","1014718","0.0-8.0-2.37","feedback","","","",""
"null","<div style=""color:black; font-size:60px;""></div>","null","html-keyboard-response","464","1016723","0.0-8.0-0.38","fixation","","","",""
"null","<img src='stimuli/s5.jpg'><img src=''>","null","html-keyboard-response","465","1019726","0.0-8.0-1.38","testing","49","0","allergy","blockingViolation"
"null","<img src=stimuli/+.jpg ></img>","null","html-keyboard-response","466","1020731","0.0-8.0-2.38","feedback","","","",""
"null","<div style=""color:black; font-size:60px;""></div>","null","html-keyboard-response","467","1022736","0.0-8.0-0.39","fixation","","","",""
"null","<img src='stimuli/s17.jpg'><img src=''>","null","html-keyboard-response","468","1025743","0.0-8.0-1.39","testing","48","0","noReaction","noAllergyControl"
"null","<img src=stimuli/-.jpg ></img>","null","html-keyboard-response","469","1026747","0.0-8.0-2.39","feedback","","","",""
"null","<div style=""color:black; font-size:60px;""></div>","null","html-keyboard-response","470","1028751","0.0-8.0-0.40","fixation","","","",""
"null","<img src='stimuli/s10.jpg'><img src=''>","null","html-keyboard-response","471","1031758","0.0-8.0-1.40","testing","49","0","allergy","blockingConfirmationControl"
"null","<img src=stimuli/+.jpg ></img>","null","html-keyboard-response","472","1032762","0.0-8.0-2.40","feedback","","","",""
"null","<div style=""color:black; font-size:60px;""></div>","null","html-keyboard-response","473","1034766","0.0-8.0-0.41","fixation","","","",""
"null","<img src='stimuli/s18.jpg'><img src=''>","null","html-keyboard-response","474","1037769","0.0-8.0-1.41","testing","48","0","noReaction","blockingConfirmation"
"null","<img src=stimuli/-.jpg ></img>","null","html-keyboard-response","475","1038774","0.0-8.0-2.41","feedback","","","",""
